{
  "resourceType": "Bundle",
  "meta": {
    "profile": [ "https://www.netzwerk-universitaetsmedizin.de/fhir/StructureDefinition/gecco-bundle" ]
  },
  "type": "transaction",
  "entry": [ {
    "fullUrl": "Patient/532026d52cef4c0269e87d90da8bad79b28431d5f520945a0f2d61017576fd8d",
    "resource": {
      "resourceType": "Patient",
      "meta": {
        "profile": [ "https://www.netzwerk-universitaetsmedizin.de/fhir/StructureDefinition/Patient" ]
      },
      "extension": [ {
        "url": "https://www.netzwerk-universitaetsmedizin.de/fhir/StructureDefinition/age",
        "extension": [ {
          "url": "dateTimeOfDocumentation",
          "_valueDateTime": {
            "extension": [ {
              "url": "http://hl7.org/fhir/StructureDefinition/data-absent-reason",
              "valueCode": "unknown"
            } ]
          }
        }, {
          "url": "age",
          "valueAge": {
            "value": 80,
            "unit": "years",
            "system": "http://unitsofmeasure.org",
            "code": "a"
          }
        } ]
      }, {
        "url": "https://www.netzwerk-universitaetsmedizin.de/fhir/StructureDefinition/ethnic-group",
        "valueCoding": {
          "system": "http://snomed.info/sct",
          "code": "186019001"
        }
      } ],
      "identifier": [ {
        "type": {
          "coding": [ {
            "system": "http://terminology.hl7.org/CodeSystem/v2-0203",
            "code": "MR"
          } ]
        },
        "system": "https://mein.krankenhaus.de/fhir/NamingSystem/patientId",
        "value": "synthetic_patient_515075511",
        "assigner": {
          "reference": "Organization/3a4f3433bce81181bad2d8e0b8fafccf7dc800bc06f29be73dcb38b750a48f9a"
        }
      } ],
      "birthDate": "1940-05-09"
    },
    "request": {
      "method": "POST",
      "url": "Patient",
      "ifNoneExist": "identifier=https://mein.krankenhaus.de/fhir/NamingSystem/patientId|532026d52cef4c0269e87d90da8bad79b28431d5f520945a0f2d61017576fd8d"
    }
  }, {
    "fullUrl": "Organization/3a4f3433bce81181bad2d8e0b8fafccf7dc800bc06f29be73dcb38b750a48f9a",
    "resource": {
      "resourceType": "Organization",
      "name": "Mein Krankenhaus"
    },
    "request": {
      "method": "POST",
      "url": "Organization",
      "ifNoneExist": "identifier=null|3a4f3433bce81181bad2d8e0b8fafccf7dc800bc06f29be73dcb38b750a48f9a"
    }
  }, {
    "fullUrl": "Encounter/328723566c2469ff310f2958443bf255f62ac0de6c8c9d7b2d32cdb03b816858",
    "resource": {
      "resourceType": "Encounter",
      "identifier": [ {
        "system": "https://mein.krankenhaus.de/fhir/NamingSystem/encounterId",
        "value": "088673adcd45d8ce39a5f694718c3d24afcb12d1426d7408fafee2368d4a8e1b",
        "assigner": {
          "reference": "Organization/3a4f3433bce81181bad2d8e0b8fafccf7dc800bc06f29be73dcb38b750a48f9a"
        }
      } ],
      "status": "unknown",
      "class": {
        "system": "http://terminology.hl7.org/CodeSystem/v3-ActCode",
        "code": "IMP",
        "display": "inpatient encounter"
      },
      "subject": {
        "reference": "Patient/532026d52cef4c0269e87d90da8bad79b28431d5f520945a0f2d61017576fd8d"
      }
    },
    "request": {
      "method": "POST",
      "url": "Encounter",
      "ifNoneExist": "identifier=https://mein.krankenhaus.de/fhir/NamingSystem/encounterId|328723566c2469ff310f2958443bf255f62ac0de6c8c9d7b2d32cdb03b816858"
    }
  }, {
    "fullUrl": "Condition/289ff3b632ff0e20fd9539a98d82675fcd872df1bb2c4dedc45be1f67eaddd60",
    "resource": {
      "resourceType": "Condition",
      "meta": {
        "profile": [ "https://www.netzwerk-universitaetsmedizin.de/fhir/StructureDefinition/diagnosis-covid-19" ]
      },
      "identifier": [ {
        "system": "https://mein.krankenhaus.de/fhir/NamingSystem/conditionId",
        "value": "88e8b494fa910ed1b780b9b441605e682209849760b43b1cb282c43b5a0f2fa7"
      } ],
      "clinicalStatus": {
        "coding": [ {
          "system": "http://terminology.hl7.org/CodeSystem/condition-clinical",
          "code": "active",
          "display": "Active"
        } ]
      },
      "verificationStatus": {
        "coding": [ {
          "system": "http://terminology.hl7.org/CodeSystem/condition-ver-status",
          "code": "confirmed",
          "display": "Confirmed"
        }, {
          "system": "http://snomed.info/sct",
          "code": "410605003",
          "display": "Confirmed present (qualifier value)"
        } ]
      },
      "category": [ {
        "coding": [ {
          "system": "http://snomed.info/sct",
          "code": "394807007",
          "display": "Infectious diseases (specialty) (qualifier value)"
        } ]
      } ],
      "code": {
        "coding": [ {
          "system": "http://snomed.info/sct",
          "code": "840539006",
          "display": "Disease caused by Severe acute respiratory syndrome coronavirus 2 (disorder)"
        } ]
      },
      "subject": {
        "reference": "Patient/532026d52cef4c0269e87d90da8bad79b28431d5f520945a0f2d61017576fd8d"
      },
      "encounter": {
        "reference": "Encounter/328723566c2469ff310f2958443bf255f62ac0de6c8c9d7b2d32cdb03b816858"
      },
      "_recordedDate": {
        "extension": [ {
          "url": "http://hl7.org/fhir/StructureDefinition/data-absent-reason",
          "valueCode": "unknown"
        } ]
      },
      "stage": [ {
        "summary": {
          "coding": [ {
            "system": "http://snomed.info/sct",
            "code": "24484000"
          } ]
        },
        "type": {
          "coding": [ {
            "system": "http://loinc.org",
            "code": "88859-4"
          } ]
        }
      } ]
    },
    "request": {
      "method": "POST",
      "url": "Condition",
      "ifNoneExist": "identifier=https://mein.krankenhaus.de/fhir/NamingSystem/conditionId|289ff3b632ff0e20fd9539a98d82675fcd872df1bb2c4dedc45be1f67eaddd60"
    }
  }, {
    "fullUrl": "Condition/2b4df11bc95c1423a20d7f5b752be0f00e899ccfefbcf05b2a5535121e990667",
    "resource": {
      "resourceType": "Condition",
      "meta": {
        "profile": [ "https://www.netzwerk-universitaetsmedizin.de/fhir/StructureDefinition/chronic-lung-diseases" ]
      },
      "identifier": [ {
        "system": "https://mein.krankenhaus.de/fhir/NamingSystem/conditionId",
        "value": "43042772991499744c113e586557235fe965dfff22061e5f3b80649fa5c1d55c"
      } ],
      "verificationStatus": {
        "coding": [ {
          "system": "http://terminology.hl7.org/CodeSystem/condition-ver-status",
          "code": "refuted",
          "display": "Refuted"
        }, {
          "system": "http://snomed.info/sct",
          "code": "410594000",
          "display": "Definitely NOT present (qualifier value)"
        } ]
      },
      "category": [ {
        "coding": [ {
          "system": "http://snomed.info/sct",
          "code": "418112009",
          "display": "Pulmonary medicine (qualifier value)"
        } ]
      } ],
      "code": {
        "coding": [ {
          "system": "http://fhir.de/CodeSystem/dimdi/icd-10-gm",
          "version": "2021",
          "code": "J45.9"
        }, {
          "system": "http://snomed.info/sct",
          "code": "195967001"
        } ]
      },
      "subject": {
        "reference": "Patient/532026d52cef4c0269e87d90da8bad79b28431d5f520945a0f2d61017576fd8d"
      },
      "encounter": {
        "reference": "Encounter/328723566c2469ff310f2958443bf255f62ac0de6c8c9d7b2d32cdb03b816858"
      },
      "_recordedDate": {
        "extension": [ {
          "url": "http://hl7.org/fhir/StructureDefinition/data-absent-reason",
          "valueCode": "unknown"
        } ]
      }
    },
    "request": {
      "method": "POST",
      "url": "Condition",
      "ifNoneExist": "identifier=https://mein.krankenhaus.de/fhir/NamingSystem/conditionId|2b4df11bc95c1423a20d7f5b752be0f00e899ccfefbcf05b2a5535121e990667"
    }
  }, {
    "fullUrl": "Condition/c8931f5128722d97d96050e2f23b0a15e3a5e9ce2fac454869794a75be457e64",
    "resource": {
      "resourceType": "Condition",
      "meta": {
        "profile": [ "https://www.netzwerk-universitaetsmedizin.de/fhir/StructureDefinition/chronic-lung-diseases" ]
      },
      "identifier": [ {
        "system": "https://mein.krankenhaus.de/fhir/NamingSystem/conditionId",
        "value": "c6c615f02c5595fb7c74b3bbe76ca87b5215f17e502ff2871c7c044d802f663c"
      } ],
      "verificationStatus": {
        "coding": [ {
          "system": "http://terminology.hl7.org/CodeSystem/condition-ver-status",
          "code": "refuted",
          "display": "Refuted"
        }, {
          "system": "http://snomed.info/sct",
          "code": "410594000",
          "display": "Definitely NOT present (qualifier value)"
        } ]
      },
      "category": [ {
        "coding": [ {
          "system": "http://snomed.info/sct",
          "code": "418112009",
          "display": "Pulmonary medicine (qualifier value)"
        } ]
      } ],
      "code": {
        "coding": [ {
          "system": "http://fhir.de/CodeSystem/dimdi/icd-10-gm",
          "version": "2021",
          "code": "J44.9"
        }, {
          "system": "http://snomed.info/sct",
          "code": "13645005"
        } ]
      },
      "subject": {
        "reference": "Patient/532026d52cef4c0269e87d90da8bad79b28431d5f520945a0f2d61017576fd8d"
      },
      "encounter": {
        "reference": "Encounter/328723566c2469ff310f2958443bf255f62ac0de6c8c9d7b2d32cdb03b816858"
      },
      "_recordedDate": {
        "extension": [ {
          "url": "http://hl7.org/fhir/StructureDefinition/data-absent-reason",
          "valueCode": "unknown"
        } ]
      }
    },
    "request": {
      "method": "POST",
      "url": "Condition",
      "ifNoneExist": "identifier=https://mein.krankenhaus.de/fhir/NamingSystem/conditionId|c8931f5128722d97d96050e2f23b0a15e3a5e9ce2fac454869794a75be457e64"
    }
  }, {
    "fullUrl": "Condition/ae064a18a2a90d8c5e5bd2c367d29a667106530abeca2dfe8d35d25c34df8132",
    "resource": {
      "resourceType": "Condition",
      "meta": {
        "profile": [ "https://www.netzwerk-universitaetsmedizin.de/fhir/StructureDefinition/chronic-lung-diseases" ]
      },
      "identifier": [ {
        "system": "https://mein.krankenhaus.de/fhir/NamingSystem/conditionId",
        "value": "5074c9485fb205c6a0e5d8e310d4b25b2d70f334a4e3f2b43009d02ae06e4700"
      } ],
      "clinicalStatus": {
        "coding": [ {
          "system": "http://terminology.hl7.org/CodeSystem/condition-clinical",
          "code": "active",
          "display": "Active"
        } ]
      },
      "verificationStatus": {
        "coding": [ {
          "system": "http://terminology.hl7.org/CodeSystem/condition-ver-status",
          "code": "confirmed",
          "display": "Confirmed"
        }, {
          "system": "http://snomed.info/sct",
          "code": "410605003",
          "display": "Confirmed present (qualifier value)"
        } ]
      },
      "category": [ {
        "coding": [ {
          "system": "http://snomed.info/sct",
          "code": "418112009",
          "display": "Pulmonary medicine (qualifier value)"
        } ]
      } ],
      "code": {
        "coding": [ {
          "system": "http://fhir.de/CodeSystem/dimdi/icd-10-gm",
          "version": "2021",
          "code": "J84.1"
        }, {
          "system": "http://snomed.info/sct",
          "code": "51615001"
        } ]
      },
      "subject": {
        "reference": "Patient/532026d52cef4c0269e87d90da8bad79b28431d5f520945a0f2d61017576fd8d"
      },
      "encounter": {
        "reference": "Encounter/328723566c2469ff310f2958443bf255f62ac0de6c8c9d7b2d32cdb03b816858"
      },
      "_recordedDate": {
        "extension": [ {
          "url": "http://hl7.org/fhir/StructureDefinition/data-absent-reason",
          "valueCode": "unknown"
        } ]
      }
    },
    "request": {
      "method": "POST",
      "url": "Condition",
      "ifNoneExist": "identifier=https://mein.krankenhaus.de/fhir/NamingSystem/conditionId|ae064a18a2a90d8c5e5bd2c367d29a667106530abeca2dfe8d35d25c34df8132"
    }
  }, {
    "fullUrl": "Condition/ba019c5254177d9fdbe8bc50a45ae75c22cfc041d985900d26a08a5a9253aa14",
    "resource": {
      "resourceType": "Condition",
      "meta": {
        "profile": [ "https://www.netzwerk-universitaetsmedizin.de/fhir/StructureDefinition/chronic-lung-diseases" ]
      },
      "identifier": [ {
        "system": "https://mein.krankenhaus.de/fhir/NamingSystem/conditionId",
        "value": "2a93d75f86fd67d1ee6fc4896d69269c9d128960dbefd743e9ed1c2aedacf6e2"
      } ],
      "clinicalStatus": {
        "coding": [ {
          "system": "http://terminology.hl7.org/CodeSystem/condition-clinical",
          "code": "active",
          "display": "Active"
        } ]
      },
      "verificationStatus": {
        "coding": [ {
          "system": "http://terminology.hl7.org/CodeSystem/condition-ver-status",
          "code": "confirmed",
          "display": "Confirmed"
        }, {
          "system": "http://snomed.info/sct",
          "code": "410605003",
          "display": "Confirmed present (qualifier value)"
        } ]
      },
      "category": [ {
        "coding": [ {
          "system": "http://snomed.info/sct",
          "code": "418112009",
          "display": "Pulmonary medicine (qualifier value)"
        } ]
      } ],
      "code": {
        "coding": [ {
          "system": "http://fhir.de/CodeSystem/dimdi/icd-10-gm",
          "version": "2021",
          "code": "I27.0"
        }, {
          "system": "http://snomed.info/sct",
          "code": "70995007"
        } ]
      },
      "subject": {
        "reference": "Patient/532026d52cef4c0269e87d90da8bad79b28431d5f520945a0f2d61017576fd8d"
      },
      "encounter": {
        "reference": "Encounter/328723566c2469ff310f2958443bf255f62ac0de6c8c9d7b2d32cdb03b816858"
      },
      "_recordedDate": {
        "extension": [ {
          "url": "http://hl7.org/fhir/StructureDefinition/data-absent-reason",
          "valueCode": "unknown"
        } ]
      }
    },
    "request": {
      "method": "POST",
      "url": "Condition",
      "ifNoneExist": "identifier=https://mein.krankenhaus.de/fhir/NamingSystem/conditionId|ba019c5254177d9fdbe8bc50a45ae75c22cfc041d985900d26a08a5a9253aa14"
    }
  }, {
    "fullUrl": "Condition/ae80de524a2a6b432f437097553685e3da2f02b3c4732db446113a6cd4209060",
    "resource": {
      "resourceType": "Condition",
      "meta": {
        "profile": [ "https://www.netzwerk-universitaetsmedizin.de/fhir/StructureDefinition/chronic-lung-diseases" ]
      },
      "modifierExtension": [ {
        "url": "https://www.netzwerk-universitaetsmedizin.de/fhir/StructureDefinition/uncertainty-of-presence",
        "valueCodeableConcept": {
          "coding": [ {
            "system": "http://snomed.info/sct",
            "code": "261665006",
            "display": "Unknown (qualifier value)"
          } ],
          "text": "Presence unknown."
        }
      } ],
      "identifier": [ {
        "system": "https://mein.krankenhaus.de/fhir/NamingSystem/conditionId",
        "value": "db4a25cd2311b31aa20322d2278f95e94ded63e50650ed2c5b624ed419785496"
      } ],
      "category": [ {
        "coding": [ {
          "system": "http://snomed.info/sct",
          "code": "418112009",
          "display": "Pulmonary medicine (qualifier value)"
        } ]
      } ],
      "code": {
        "coding": [ {
          "system": "http://fhir.de/CodeSystem/dimdi/icd-10-gm",
          "version": "2021",
          "code": "E66.29"
        }, {
          "system": "http://snomed.info/sct",
          "code": "190966007"
        } ]
      },
      "subject": {
        "reference": "Patient/532026d52cef4c0269e87d90da8bad79b28431d5f520945a0f2d61017576fd8d"
      },
      "encounter": {
        "reference": "Encounter/328723566c2469ff310f2958443bf255f62ac0de6c8c9d7b2d32cdb03b816858"
      },
      "_recordedDate": {
        "extension": [ {
          "url": "http://hl7.org/fhir/StructureDefinition/data-absent-reason",
          "valueCode": "unknown"
        } ]
      }
    },
    "request": {
      "method": "POST",
      "url": "Condition",
      "ifNoneExist": "identifier=https://mein.krankenhaus.de/fhir/NamingSystem/conditionId|ae80de524a2a6b432f437097553685e3da2f02b3c4732db446113a6cd4209060"
    }
  }, {
    "fullUrl": "Condition/05238cc51d248f7bf174c8a9743a9a9b7c31ea167868623f243d29c5fc32c190",
    "resource": {
      "resourceType": "Condition",
      "meta": {
        "profile": [ "https://www.netzwerk-universitaetsmedizin.de/fhir/StructureDefinition/chronic-lung-diseases" ]
      },
      "identifier": [ {
        "system": "https://mein.krankenhaus.de/fhir/NamingSystem/conditionId",
        "value": "0d5aec6f93a8f9faee8a16c1dacc59f987a536d1baf3e7495b4a76535ecae5a8"
      } ],
      "clinicalStatus": {
        "coding": [ {
          "system": "http://terminology.hl7.org/CodeSystem/condition-clinical",
          "code": "active",
          "display": "Active"
        } ]
      },
      "verificationStatus": {
        "coding": [ {
          "system": "http://terminology.hl7.org/CodeSystem/condition-ver-status",
          "code": "confirmed",
          "display": "Confirmed"
        }, {
          "system": "http://snomed.info/sct",
          "code": "410605003",
          "display": "Confirmed present (qualifier value)"
        } ]
      },
      "category": [ {
        "coding": [ {
          "system": "http://snomed.info/sct",
          "code": "418112009",
          "display": "Pulmonary medicine (qualifier value)"
        } ]
      } ],
      "code": {
        "coding": [ {
          "system": "http://fhir.de/CodeSystem/dimdi/icd-10-gm",
          "version": "2021",
          "code": "G47.3"
        }, {
          "system": "http://snomed.info/sct",
          "code": "73430006"
        } ]
      },
      "subject": {
        "reference": "Patient/532026d52cef4c0269e87d90da8bad79b28431d5f520945a0f2d61017576fd8d"
      },
      "encounter": {
        "reference": "Encounter/328723566c2469ff310f2958443bf255f62ac0de6c8c9d7b2d32cdb03b816858"
      },
      "_recordedDate": {
        "extension": [ {
          "url": "http://hl7.org/fhir/StructureDefinition/data-absent-reason",
          "valueCode": "unknown"
        } ]
      }
    },
    "request": {
      "method": "POST",
      "url": "Condition",
      "ifNoneExist": "identifier=https://mein.krankenhaus.de/fhir/NamingSystem/conditionId|05238cc51d248f7bf174c8a9743a9a9b7c31ea167868623f243d29c5fc32c190"
    }
  }, {
    "fullUrl": "Condition/1a0a7a8891c7b3cd67bc37f90dd9869efafb14f4d25559a02e5b528891cc02d9",
    "resource": {
      "resourceType": "Condition",
      "meta": {
        "profile": [ "https://www.netzwerk-universitaetsmedizin.de/fhir/StructureDefinition/chronic-lung-diseases" ]
      },
      "identifier": [ {
        "system": "https://mein.krankenhaus.de/fhir/NamingSystem/conditionId",
        "value": "c874d0367d304ee1758a943c7d1d9c447e9d572703c44c23bd3299a2854dcab9"
      } ],
      "clinicalStatus": {
        "coding": [ {
          "system": "http://terminology.hl7.org/CodeSystem/condition-clinical",
          "code": "active",
          "display": "Active"
        } ]
      },
      "verificationStatus": {
        "coding": [ {
          "system": "http://terminology.hl7.org/CodeSystem/condition-ver-status",
          "code": "confirmed",
          "display": "Confirmed"
        }, {
          "system": "http://snomed.info/sct",
          "code": "410605003",
          "display": "Confirmed present (qualifier value)"
        } ]
      },
      "category": [ {
        "coding": [ {
          "system": "http://snomed.info/sct",
          "code": "418112009",
          "display": "Pulmonary medicine (qualifier value)"
        } ]
      } ],
      "code": {
        "coding": [ {
          "system": "http://fhir.de/CodeSystem/dimdi/icd-10-gm",
          "version": "2021",
          "code": "G47.31"
        }, {
          "system": "http://snomed.info/sct",
          "code": "78275009"
        } ]
      },
      "subject": {
        "reference": "Patient/532026d52cef4c0269e87d90da8bad79b28431d5f520945a0f2d61017576fd8d"
      },
      "encounter": {
        "reference": "Encounter/328723566c2469ff310f2958443bf255f62ac0de6c8c9d7b2d32cdb03b816858"
      },
      "_recordedDate": {
        "extension": [ {
          "url": "http://hl7.org/fhir/StructureDefinition/data-absent-reason",
          "valueCode": "unknown"
        } ]
      }
    },
    "request": {
      "method": "POST",
      "url": "Condition",
      "ifNoneExist": "identifier=https://mein.krankenhaus.de/fhir/NamingSystem/conditionId|1a0a7a8891c7b3cd67bc37f90dd9869efafb14f4d25559a02e5b528891cc02d9"
    }
  }, {
    "fullUrl": "Condition/e34b11d9b5704aaa69a89676b15470441c1ff34f148eea7cde91bf283df8a9c3",
    "resource": {
      "resourceType": "Condition",
      "meta": {
        "profile": [ "https://www.netzwerk-universitaetsmedizin.de/fhir/StructureDefinition/chronic-lung-diseases" ]
      },
      "identifier": [ {
        "system": "https://mein.krankenhaus.de/fhir/NamingSystem/conditionId",
        "value": "ee39492e15e0a49921919c1357c8d86089ed527ac442c3bb5d45b821a3811d9b"
      } ],
      "verificationStatus": {
        "coding": [ {
          "system": "http://terminology.hl7.org/CodeSystem/condition-ver-status",
          "code": "refuted",
          "display": "Refuted"
        }, {
          "system": "http://snomed.info/sct",
          "code": "410594000",
          "display": "Definitely NOT present (qualifier value)"
        } ]
      },
      "category": [ {
        "coding": [ {
          "system": "http://snomed.info/sct",
          "code": "418112009",
          "display": "Pulmonary medicine (qualifier value)"
        } ]
      } ],
      "code": {
        "coding": [ {
          "system": "http://fhir.de/CodeSystem/dimdi/icd-10-gm",
          "version": "2021",
          "code": "E84.9"
        }, {
          "system": "http://snomed.info/sct",
          "code": "190905008"
        } ]
      },
      "subject": {
        "reference": "Patient/532026d52cef4c0269e87d90da8bad79b28431d5f520945a0f2d61017576fd8d"
      },
      "encounter": {
        "reference": "Encounter/328723566c2469ff310f2958443bf255f62ac0de6c8c9d7b2d32cdb03b816858"
      },
      "_recordedDate": {
        "extension": [ {
          "url": "http://hl7.org/fhir/StructureDefinition/data-absent-reason",
          "valueCode": "unknown"
        } ]
      }
    },
    "request": {
      "method": "POST",
      "url": "Condition",
      "ifNoneExist": "identifier=https://mein.krankenhaus.de/fhir/NamingSystem/conditionId|e34b11d9b5704aaa69a89676b15470441c1ff34f148eea7cde91bf283df8a9c3"
    }
  }, {
    "fullUrl": "Condition/86fc3303a442fd8c1ce958f64fb88e7b9f34843204c477659e7cbe957c3bf323",
    "resource": {
      "resourceType": "Condition",
      "meta": {
        "profile": [ "https://www.netzwerk-universitaetsmedizin.de/fhir/StructureDefinition/chronic-lung-diseases" ]
      },
      "identifier": [ {
        "system": "https://mein.krankenhaus.de/fhir/NamingSystem/conditionId",
        "value": "a02786de62b5187b4b14c32867095cfd8f4af73b81ff3704e459dc7bc2a5ec26"
      } ],
      "clinicalStatus": {
        "coding": [ {
          "system": "http://terminology.hl7.org/CodeSystem/condition-clinical",
          "code": "active",
          "display": "Active"
        } ]
      },
      "verificationStatus": {
        "coding": [ {
          "system": "http://terminology.hl7.org/CodeSystem/condition-ver-status",
          "code": "confirmed",
          "display": "Confirmed"
        }, {
          "system": "http://snomed.info/sct",
          "code": "410605003",
          "display": "Confirmed present (qualifier value)"
        } ]
      },
      "category": [ {
        "coding": [ {
          "system": "http://snomed.info/sct",
          "code": "418112009",
          "display": "Pulmonary medicine (qualifier value)"
        } ]
      } ],
      "code": {
        "coding": [ {
          "system": "http://snomed.info/sct",
          "code": "106048009"
        } ],
        "text": "<Freitext>"
      },
      "subject": {
        "reference": "Patient/532026d52cef4c0269e87d90da8bad79b28431d5f520945a0f2d61017576fd8d"
      },
      "encounter": {
        "reference": "Encounter/328723566c2469ff310f2958443bf255f62ac0de6c8c9d7b2d32cdb03b816858"
      },
      "_recordedDate": {
        "extension": [ {
          "url": "http://hl7.org/fhir/StructureDefinition/data-absent-reason",
          "valueCode": "unknown"
        } ]
      }
    },
    "request": {
      "method": "POST",
      "url": "Condition",
      "ifNoneExist": "identifier=https://mein.krankenhaus.de/fhir/NamingSystem/conditionId|86fc3303a442fd8c1ce958f64fb88e7b9f34843204c477659e7cbe957c3bf323"
    }
  }, {
    "fullUrl": "Condition/188535d8f5534662196225a25538c0f05dc33438b40690a8add841cf40cbdeea",
    "resource": {
      "resourceType": "Condition",
      "meta": {
        "profile": [ "https://www.netzwerk-universitaetsmedizin.de/fhir/StructureDefinition/cardiovascular-diseases" ]
      },
      "modifierExtension": [ {
        "url": "https://www.netzwerk-universitaetsmedizin.de/fhir/StructureDefinition/uncertainty-of-presence",
        "valueCodeableConcept": {
          "coding": [ {
            "system": "http://snomed.info/sct",
            "code": "261665006",
            "display": "Unknown (qualifier value)"
          } ],
          "text": "Presence unknown."
        }
      } ],
      "identifier": [ {
        "system": "https://mein.krankenhaus.de/fhir/NamingSystem/conditionId",
        "value": "78be91acc5ed34d34605a2a4971eff0a2e1e59872d9d96becfe4f61f19f1f3c1"
      } ],
      "category": [ {
        "coding": [ {
          "system": "http://snomed.info/sct",
          "code": "722414000",
          "display": "Vascular medicine (qualifier value)"
        } ]
      } ],
      "code": {
        "coding": [ {
          "system": "http://fhir.de/CodeSystem/dimdi/icd-10-gm",
          "version": "2021",
          "code": "I10.90"
        }, {
          "system": "http://snomed.info/sct",
          "code": "38341003"
        } ]
      },
      "subject": {
        "reference": "Patient/532026d52cef4c0269e87d90da8bad79b28431d5f520945a0f2d61017576fd8d"
      },
      "encounter": {
        "reference": "Encounter/328723566c2469ff310f2958443bf255f62ac0de6c8c9d7b2d32cdb03b816858"
      },
      "_recordedDate": {
        "extension": [ {
          "url": "http://hl7.org/fhir/StructureDefinition/data-absent-reason",
          "valueCode": "unknown"
        } ]
      }
    },
    "request": {
      "method": "POST",
      "url": "Condition",
      "ifNoneExist": "identifier=https://mein.krankenhaus.de/fhir/NamingSystem/conditionId|188535d8f5534662196225a25538c0f05dc33438b40690a8add841cf40cbdeea"
    }
  }, {
    "fullUrl": "Condition/89256e1b04f2d250aa532d326e1ff491c29095b4bd098a1071893cfa5a6d00dc",
    "resource": {
      "resourceType": "Condition",
      "meta": {
        "profile": [ "https://www.netzwerk-universitaetsmedizin.de/fhir/StructureDefinition/cardiovascular-diseases" ]
      },
      "identifier": [ {
        "system": "https://mein.krankenhaus.de/fhir/NamingSystem/conditionId",
        "value": "4f62e460359d03ea4bc8222c76ecdd38b8fd4108acc87258b5bc7170fac90530"
      } ],
      "clinicalStatus": {
        "coding": [ {
          "system": "http://terminology.hl7.org/CodeSystem/condition-clinical",
          "code": "active",
          "display": "Active"
        } ]
      },
      "verificationStatus": {
        "coding": [ {
          "system": "http://terminology.hl7.org/CodeSystem/condition-ver-status",
          "code": "confirmed",
          "display": "Confirmed"
        }, {
          "system": "http://snomed.info/sct",
          "code": "410605003",
          "display": "Confirmed present (qualifier value)"
        } ]
      },
      "category": [ {
        "coding": [ {
          "system": "http://snomed.info/sct",
          "code": "722414000",
          "display": "Vascular medicine (qualifier value)"
        } ]
      } ],
      "code": {
        "coding": [ {
          "system": "http://fhir.de/CodeSystem/dimdi/icd-10-gm",
          "version": "2021",
          "code": "I25.29"
        }, {
          "system": "http://snomed.info/sct",
          "code": "417662000:246090004=22298006"
        } ]
      },
      "subject": {
        "reference": "Patient/532026d52cef4c0269e87d90da8bad79b28431d5f520945a0f2d61017576fd8d"
      },
      "encounter": {
        "reference": "Encounter/328723566c2469ff310f2958443bf255f62ac0de6c8c9d7b2d32cdb03b816858"
      },
      "_recordedDate": {
        "extension": [ {
          "url": "http://hl7.org/fhir/StructureDefinition/data-absent-reason",
          "valueCode": "unknown"
        } ]
      }
    },
    "request": {
      "method": "POST",
      "url": "Condition",
      "ifNoneExist": "identifier=https://mein.krankenhaus.de/fhir/NamingSystem/conditionId|89256e1b04f2d250aa532d326e1ff491c29095b4bd098a1071893cfa5a6d00dc"
    }
  }, {
    "fullUrl": "Condition/d9da84c5012cfcefd693cd215afa95cb6d744898a3bdcd39dc02abfb15c8b9e1",
    "resource": {
      "resourceType": "Condition",
      "meta": {
        "profile": [ "https://www.netzwerk-universitaetsmedizin.de/fhir/StructureDefinition/cardiovascular-diseases" ]
      },
      "modifierExtension": [ {
        "url": "https://www.netzwerk-universitaetsmedizin.de/fhir/StructureDefinition/uncertainty-of-presence",
        "valueCodeableConcept": {
          "coding": [ {
            "system": "http://snomed.info/sct",
            "code": "261665006",
            "display": "Unknown (qualifier value)"
          } ],
          "text": "Presence unknown."
        }
      } ],
      "identifier": [ {
        "system": "https://mein.krankenhaus.de/fhir/NamingSystem/conditionId",
        "value": "1b5fb15e801655dfd41c47107f6315b426b082479d5e5a7e70d38520b8b24f51"
      } ],
      "category": [ {
        "coding": [ {
          "system": "http://snomed.info/sct",
          "code": "722414000",
          "display": "Vascular medicine (qualifier value)"
        } ]
      } ],
      "code": {
        "coding": [ {
          "system": "http://fhir.de/CodeSystem/dimdi/icd-10-gm",
          "version": "2021",
          "code": "I49.9"
        }, {
          "system": "http://snomed.info/sct",
          "code": "698247007"
        } ]
      },
      "subject": {
        "reference": "Patient/532026d52cef4c0269e87d90da8bad79b28431d5f520945a0f2d61017576fd8d"
      },
      "encounter": {
        "reference": "Encounter/328723566c2469ff310f2958443bf255f62ac0de6c8c9d7b2d32cdb03b816858"
      },
      "_recordedDate": {
        "extension": [ {
          "url": "http://hl7.org/fhir/StructureDefinition/data-absent-reason",
          "valueCode": "unknown"
        } ]
      }
    },
    "request": {
      "method": "POST",
      "url": "Condition",
      "ifNoneExist": "identifier=https://mein.krankenhaus.de/fhir/NamingSystem/conditionId|d9da84c5012cfcefd693cd215afa95cb6d744898a3bdcd39dc02abfb15c8b9e1"
    }
  }, {
    "fullUrl": "Condition/24a987a7a0ac4986dde4afe786618a5e2ed28bda2bbe9c8ea292be9b507ea131",
    "resource": {
      "resourceType": "Condition",
      "meta": {
        "profile": [ "https://www.netzwerk-universitaetsmedizin.de/fhir/StructureDefinition/cardiovascular-diseases" ]
      },
      "modifierExtension": [ {
        "url": "https://www.netzwerk-universitaetsmedizin.de/fhir/StructureDefinition/uncertainty-of-presence",
        "valueCodeableConcept": {
          "coding": [ {
            "system": "http://snomed.info/sct",
            "code": "261665006",
            "display": "Unknown (qualifier value)"
          } ],
          "text": "Presence unknown."
        }
      } ],
      "identifier": [ {
        "system": "https://mein.krankenhaus.de/fhir/NamingSystem/conditionId",
        "value": "474c8f1dd21d4005c0c589130dcb8ebe3aff6aa385f3c2f8379a255424227120"
      } ],
      "category": [ {
        "coding": [ {
          "system": "http://snomed.info/sct",
          "code": "722414000",
          "display": "Vascular medicine (qualifier value)"
        } ]
      } ],
      "code": {
        "coding": [ {
          "system": "http://fhir.de/CodeSystem/dimdi/icd-10-gm",
          "version": "2021",
          "code": "I50.9"
        }, {
          "system": "http://snomed.info/sct",
          "code": "84114007"
        } ]
      },
      "subject": {
        "reference": "Patient/532026d52cef4c0269e87d90da8bad79b28431d5f520945a0f2d61017576fd8d"
      },
      "encounter": {
        "reference": "Encounter/328723566c2469ff310f2958443bf255f62ac0de6c8c9d7b2d32cdb03b816858"
      },
      "_recordedDate": {
        "extension": [ {
          "url": "http://hl7.org/fhir/StructureDefinition/data-absent-reason",
          "valueCode": "unknown"
        } ]
      }
    },
    "request": {
      "method": "POST",
      "url": "Condition",
      "ifNoneExist": "identifier=https://mein.krankenhaus.de/fhir/NamingSystem/conditionId|24a987a7a0ac4986dde4afe786618a5e2ed28bda2bbe9c8ea292be9b507ea131"
    }
  }, {
    "fullUrl": "Condition/ec3c754f0d669da5b32014eaf3452c03800b58de19430c36f486dc57353b4228",
    "resource": {
      "resourceType": "Condition",
      "meta": {
        "profile": [ "https://www.netzwerk-universitaetsmedizin.de/fhir/StructureDefinition/cardiovascular-diseases" ]
      },
      "identifier": [ {
        "system": "https://mein.krankenhaus.de/fhir/NamingSystem/conditionId",
        "value": "44ad686c8af1dc8ca66152c882bf5abec0405ab352312e23cc90c4e2b5e79de8"
      } ],
      "verificationStatus": {
        "coding": [ {
          "system": "http://terminology.hl7.org/CodeSystem/condition-ver-status",
          "code": "refuted",
          "display": "Refuted"
        }, {
          "system": "http://snomed.info/sct",
          "code": "410594000",
          "display": "Definitely NOT present (qualifier value)"
        } ]
      },
      "category": [ {
        "coding": [ {
          "system": "http://snomed.info/sct",
          "code": "722414000",
          "display": "Vascular medicine (qualifier value)"
        } ]
      } ],
      "code": {
        "coding": [ {
          "system": "http://fhir.de/CodeSystem/dimdi/icd-10-gm",
          "version": "2021",
          "code": "I73.9"
        }, {
          "system": "http://snomed.info/sct",
          "code": "399957001"
        } ]
      },
      "subject": {
        "reference": "Patient/532026d52cef4c0269e87d90da8bad79b28431d5f520945a0f2d61017576fd8d"
      },
      "encounter": {
        "reference": "Encounter/328723566c2469ff310f2958443bf255f62ac0de6c8c9d7b2d32cdb03b816858"
      },
      "_recordedDate": {
        "extension": [ {
          "url": "http://hl7.org/fhir/StructureDefinition/data-absent-reason",
          "valueCode": "unknown"
        } ]
      }
    },
    "request": {
      "method": "POST",
      "url": "Condition",
      "ifNoneExist": "identifier=https://mein.krankenhaus.de/fhir/NamingSystem/conditionId|ec3c754f0d669da5b32014eaf3452c03800b58de19430c36f486dc57353b4228"
    }
  }, {
    "fullUrl": "Condition/f6a39ad3cfdf4f2edb829a05d179bd6282c6a683c0bc935cf60bc5dbb2dc97d7",
    "resource": {
      "resourceType": "Condition",
      "meta": {
        "profile": [ "https://www.netzwerk-universitaetsmedizin.de/fhir/StructureDefinition/cardiovascular-diseases" ]
      },
      "identifier": [ {
        "system": "https://mein.krankenhaus.de/fhir/NamingSystem/conditionId",
        "value": "a1da372dc1a4390828c80887857a123af44568d0bf5550afeac12d32bd585bff"
      } ],
      "clinicalStatus": {
        "coding": [ {
          "system": "http://terminology.hl7.org/CodeSystem/condition-clinical",
          "code": "active",
          "display": "Active"
        } ]
      },
      "verificationStatus": {
        "coding": [ {
          "system": "http://terminology.hl7.org/CodeSystem/condition-ver-status",
          "code": "confirmed",
          "display": "Confirmed"
        }, {
          "system": "http://snomed.info/sct",
          "code": "410605003",
          "display": "Confirmed present (qualifier value)"
        } ]
      },
      "category": [ {
        "coding": [ {
          "system": "http://snomed.info/sct",
          "code": "722414000",
          "display": "Vascular medicine (qualifier value)"
        } ]
      } ],
      "code": {
        "coding": [ {
          "system": "http://fhir.de/CodeSystem/dimdi/icd-10-gm",
          "version": "2021",
          "code": "Z95.5"
        }, {
          "system": "http://snomed.info/sct",
          "code": "416940007:363589002=81266008"
        } ]
      },
      "subject": {
        "reference": "Patient/532026d52cef4c0269e87d90da8bad79b28431d5f520945a0f2d61017576fd8d"
      },
      "encounter": {
        "reference": "Encounter/328723566c2469ff310f2958443bf255f62ac0de6c8c9d7b2d32cdb03b816858"
      },
      "_recordedDate": {
        "extension": [ {
          "url": "http://hl7.org/fhir/StructureDefinition/data-absent-reason",
          "valueCode": "unknown"
        } ]
      }
    },
    "request": {
      "method": "POST",
      "url": "Condition",
      "ifNoneExist": "identifier=https://mein.krankenhaus.de/fhir/NamingSystem/conditionId|f6a39ad3cfdf4f2edb829a05d179bd6282c6a683c0bc935cf60bc5dbb2dc97d7"
    }
  }, {
    "fullUrl": "Condition/a9f1a92ae52d8d5015b98e2430252cfacd3829db9a3666ec85c4f88a5d27cddf",
    "resource": {
      "resourceType": "Condition",
      "meta": {
        "profile": [ "https://www.netzwerk-universitaetsmedizin.de/fhir/StructureDefinition/cardiovascular-diseases" ]
      },
      "identifier": [ {
        "system": "https://mein.krankenhaus.de/fhir/NamingSystem/conditionId",
        "value": "56ba4c540b38590bda754fac67fd3f8dcdddc16fa2b6e29964952149faab824c"
      } ],
      "verificationStatus": {
        "coding": [ {
          "system": "http://terminology.hl7.org/CodeSystem/condition-ver-status",
          "code": "refuted",
          "display": "Refuted"
        }, {
          "system": "http://snomed.info/sct",
          "code": "410594000",
          "display": "Definitely NOT present (qualifier value)"
        } ]
      },
      "category": [ {
        "coding": [ {
          "system": "http://snomed.info/sct",
          "code": "722414000",
          "display": "Vascular medicine (qualifier value)"
        } ]
      } ],
      "code": {
        "coding": [ {
          "system": "http://fhir.de/CodeSystem/dimdi/icd-10-gm",
          "version": "2021",
          "code": "I25.1"
        }, {
          "system": "http://snomed.info/sct",
          "code": "53741008"
        } ]
      },
      "subject": {
        "reference": "Patient/532026d52cef4c0269e87d90da8bad79b28431d5f520945a0f2d61017576fd8d"
      },
      "encounter": {
        "reference": "Encounter/328723566c2469ff310f2958443bf255f62ac0de6c8c9d7b2d32cdb03b816858"
      },
      "_recordedDate": {
        "extension": [ {
          "url": "http://hl7.org/fhir/StructureDefinition/data-absent-reason",
          "valueCode": "unknown"
        } ]
      }
    },
    "request": {
      "method": "POST",
      "url": "Condition",
      "ifNoneExist": "identifier=https://mein.krankenhaus.de/fhir/NamingSystem/conditionId|a9f1a92ae52d8d5015b98e2430252cfacd3829db9a3666ec85c4f88a5d27cddf"
    }
  }, {
    "fullUrl": "Condition/626bc299b3363b83411294146f8fdc231c3077e6c8048304532d5c8d33f3896f",
    "resource": {
      "resourceType": "Condition",
      "meta": {
        "profile": [ "https://www.netzwerk-universitaetsmedizin.de/fhir/StructureDefinition/cardiovascular-diseases" ]
      },
      "identifier": [ {
        "system": "https://mein.krankenhaus.de/fhir/NamingSystem/conditionId",
        "value": "e314218d869d35c2d0e15027adea315b48a5dfa96bb261146e32a7897358e2e1"
      } ],
      "verificationStatus": {
        "coding": [ {
          "system": "http://terminology.hl7.org/CodeSystem/condition-ver-status",
          "code": "refuted",
          "display": "Refuted"
        }, {
          "system": "http://snomed.info/sct",
          "code": "410594000",
          "display": "Definitely NOT present (qualifier value)"
        } ]
      },
      "category": [ {
        "coding": [ {
          "system": "http://snomed.info/sct",
          "code": "722414000",
          "display": "Vascular medicine (qualifier value)"
        } ]
      } ],
      "code": {
        "coding": [ {
          "system": "http://fhir.de/CodeSystem/dimdi/icd-10-gm",
          "version": "2021",
          "code": "I65.2"
        }, {
          "system": "http://snomed.info/sct",
          "code": "64586002"
        } ]
      },
      "subject": {
        "reference": "Patient/532026d52cef4c0269e87d90da8bad79b28431d5f520945a0f2d61017576fd8d"
      },
      "encounter": {
        "reference": "Encounter/328723566c2469ff310f2958443bf255f62ac0de6c8c9d7b2d32cdb03b816858"
      },
      "_recordedDate": {
        "extension": [ {
          "url": "http://hl7.org/fhir/StructureDefinition/data-absent-reason",
          "valueCode": "unknown"
        } ]
      }
    },
    "request": {
      "method": "POST",
      "url": "Condition",
      "ifNoneExist": "identifier=https://mein.krankenhaus.de/fhir/NamingSystem/conditionId|626bc299b3363b83411294146f8fdc231c3077e6c8048304532d5c8d33f3896f"
    }
  }, {
    "fullUrl": "Condition/9cb68e1df7366de0e86e7712af5fddaec04b8ebadbb4b4ad4a477e5d8f51d05c",
    "resource": {
      "resourceType": "Condition",
      "meta": {
        "profile": [ "https://www.netzwerk-universitaetsmedizin.de/fhir/StructureDefinition/cardiovascular-diseases" ]
      },
      "identifier": [ {
        "system": "https://mein.krankenhaus.de/fhir/NamingSystem/conditionId",
        "value": "5c5430612f4f533be5523b55515a9d6cf73ac34e595dd89eae369d6313b56049"
      } ],
      "clinicalStatus": {
        "coding": [ {
          "system": "http://terminology.hl7.org/CodeSystem/condition-clinical",
          "code": "active",
          "display": "Active"
        } ]
      },
      "verificationStatus": {
        "coding": [ {
          "system": "http://terminology.hl7.org/CodeSystem/condition-ver-status",
          "code": "confirmed",
          "display": "Confirmed"
        }, {
          "system": "http://snomed.info/sct",
          "code": "410605003",
          "display": "Confirmed present (qualifier value)"
        } ]
      },
      "category": [ {
        "coding": [ {
          "system": "http://snomed.info/sct",
          "code": "722414000",
          "display": "Vascular medicine (qualifier value)"
        } ]
      } ],
      "code": {
        "coding": [ {
          "system": "http://fhir.de/CodeSystem/dimdi/icd-10-gm",
          "version": "2021",
          "code": "I51.6"
        }, {
          "system": "http://snomed.info/sct",
          "code": "49601007"
        } ]
      },
      "subject": {
        "reference": "Patient/532026d52cef4c0269e87d90da8bad79b28431d5f520945a0f2d61017576fd8d"
      },
      "encounter": {
        "reference": "Encounter/328723566c2469ff310f2958443bf255f62ac0de6c8c9d7b2d32cdb03b816858"
      },
      "_recordedDate": {
        "extension": [ {
          "url": "http://hl7.org/fhir/StructureDefinition/data-absent-reason",
          "valueCode": "unknown"
        } ]
      }
    },
    "request": {
      "method": "POST",
      "url": "Condition",
      "ifNoneExist": "identifier=https://mein.krankenhaus.de/fhir/NamingSystem/conditionId|9cb68e1df7366de0e86e7712af5fddaec04b8ebadbb4b4ad4a477e5d8f51d05c"
    }
  }, {
    "fullUrl": "Condition/7e6b222d8a78d34250f42f3e6cdd944f60dcee21b85bee0f6bef6e0abcacf97b",
    "resource": {
      "resourceType": "Condition",
      "meta": {
        "profile": [ "https://www.netzwerk-universitaetsmedizin.de/fhir/StructureDefinition/human-immunodeficiency-virus-infection" ]
      },
      "modifierExtension": [ {
        "url": "https://www.netzwerk-universitaetsmedizin.de/fhir/StructureDefinition/uncertainty-of-presence",
        "valueCodeableConcept": {
          "coding": [ {
            "system": "http://snomed.info/sct",
            "code": "261665006",
            "display": "Unknown (qualifier value)"
          } ],
          "text": "Presence unknown."
        }
      } ],
      "identifier": [ {
        "system": "https://mein.krankenhaus.de/fhir/NamingSystem/conditionId",
        "value": "36aa4f88b7fb4a084ea4d13f1574d191d0f4f149c3392e292f3f767d7339774b"
      } ],
      "category": [ {
        "coding": [ {
          "system": "http://snomed.info/sct",
          "code": "394807007",
          "display": "Infectious diseases (specialty) (qualifier value)"
        } ]
      } ],
      "code": {
        "coding": [ {
          "system": "http://fhir.de/CodeSystem/dimdi/icd-10-gm",
          "version": "2021",
          "code": "B24"
        }, {
          "system": "http://snomed.info/sct",
          "code": "86406008"
        } ]
      },
      "subject": {
        "reference": "Patient/532026d52cef4c0269e87d90da8bad79b28431d5f520945a0f2d61017576fd8d"
      },
      "encounter": {
        "reference": "Encounter/328723566c2469ff310f2958443bf255f62ac0de6c8c9d7b2d32cdb03b816858"
      },
      "_recordedDate": {
        "extension": [ {
          "url": "http://hl7.org/fhir/StructureDefinition/data-absent-reason",
          "valueCode": "unknown"
        } ]
      }
    },
    "request": {
      "method": "POST",
      "url": "Condition",
      "ifNoneExist": "identifier=https://mein.krankenhaus.de/fhir/NamingSystem/conditionId|7e6b222d8a78d34250f42f3e6cdd944f60dcee21b85bee0f6bef6e0abcacf97b"
    }
  }, {
    "fullUrl": "Condition/ccbe60a4137cff2eb05f906ccbdbb158021b5ed2808ddbe48343d615f8a833e0",
    "resource": {
      "resourceType": "Condition",
      "meta": {
        "profile": [ "https://www.netzwerk-universitaetsmedizin.de/fhir/StructureDefinition/diabetes-mellitus" ]
      },
      "identifier": [ {
        "system": "https://mein.krankenhaus.de/fhir/NamingSystem/conditionId",
        "value": "f114b9b3b68e76f5d0b08c602f260d3898ca8335db1ffa120c6049d7541bc92a"
      } ],
      "verificationStatus": {
        "coding": [ {
          "system": "http://terminology.hl7.org/CodeSystem/condition-ver-status",
          "code": "confirmed",
          "display": "Confirmed"
        }, {
          "system": "http://snomed.info/sct",
          "code": "410605003",
          "display": "Confirmed present (qualifier value)"
        } ]
      },
      "category": [ {
        "coding": [ {
          "system": "http://snomed.info/sct",
          "code": "408475000",
          "display": "Diabetic medicine (qualifier value)"
        } ]
      } ],
      "code": {
        "coding": [ {
          "system": "http://fhir.de/CodeSystem/dimdi/icd-10-gm",
          "version": "2021",
          "code": "E13.9"
        }, {
          "system": "http://snomed.info/sct",
          "code": "8801005"
        } ]
      },
      "subject": {
        "reference": "Patient/532026d52cef4c0269e87d90da8bad79b28431d5f520945a0f2d61017576fd8d"
      },
      "encounter": {
        "reference": "Encounter/328723566c2469ff310f2958443bf255f62ac0de6c8c9d7b2d32cdb03b816858"
      },
      "_recordedDate": {
        "extension": [ {
          "url": "http://hl7.org/fhir/StructureDefinition/data-absent-reason",
          "valueCode": "unknown"
        } ]
      }
    },
    "request": {
      "method": "POST",
      "url": "Condition",
      "ifNoneExist": "identifier=https://mein.krankenhaus.de/fhir/NamingSystem/conditionId|ccbe60a4137cff2eb05f906ccbdbb158021b5ed2808ddbe48343d615f8a833e0"
    }
  }, {
    "fullUrl": "Condition/a804602df769ef660ad6297f87ec4c9119837aca8fbad37651fa9814c8b24d0b",
    "resource": {
      "resourceType": "Condition",
      "meta": {
        "profile": [ "https://www.netzwerk-universitaetsmedizin.de/fhir/StructureDefinition/malignant-neoplastic-disease" ]
      },
      "identifier": [ {
        "system": "https://mein.krankenhaus.de/fhir/NamingSystem/conditionId",
        "value": "85625106cb33995f016ea875c20343f625e3e11fc2970e626a4a5df7d18fad0b"
      } ],
      "verificationStatus": {
        "coding": [ {
          "system": "http://terminology.hl7.org/CodeSystem/condition-ver-status",
          "code": "refuted",
          "display": "Refuted"
        }, {
          "system": "http://snomed.info/sct",
          "code": "410594000",
          "display": "Definitely NOT present (qualifier value)"
        } ]
      },
      "category": [ {
        "coding": [ {
          "system": "http://snomed.info/sct",
          "code": "394593009",
          "display": "Medical oncology (qualifier value)"
        } ]
      } ],
      "code": {
        "coding": [ {
          "system": "http://fhir.de/CodeSystem/dimdi/icd-10-gm",
          "version": "2021",
          "code": "C80.9"
        }, {
          "system": "http://snomed.info/sct",
          "code": "363346000"
        } ]
      },
      "subject": {
        "reference": "Patient/532026d52cef4c0269e87d90da8bad79b28431d5f520945a0f2d61017576fd8d"
      },
      "encounter": {
        "reference": "Encounter/328723566c2469ff310f2958443bf255f62ac0de6c8c9d7b2d32cdb03b816858"
      },
      "_recordedDate": {
        "extension": [ {
          "url": "http://hl7.org/fhir/StructureDefinition/data-absent-reason",
          "valueCode": "unknown"
        } ]
      }
    },
    "request": {
      "method": "POST",
      "url": "Condition",
      "ifNoneExist": "identifier=https://mein.krankenhaus.de/fhir/NamingSystem/conditionId|a804602df769ef660ad6297f87ec4c9119837aca8fbad37651fa9814c8b24d0b"
    }
  }, {
    "fullUrl": "Condition/17b8ef7a60543a9ae0848a23b2197189bae65ca85fce80cce5fab7a634eaf8fb",
    "resource": {
      "resourceType": "Condition",
      "meta": {
        "profile": [ "https://www.netzwerk-universitaetsmedizin.de/fhir/StructureDefinition/chronic-kidney-diseases" ]
      },
      "identifier": [ {
        "system": "https://mein.krankenhaus.de/fhir/NamingSystem/conditionId",
        "value": "aa05dcfbf600578346c5dbef585b28a22b344773f604e648c7696a0a9383bfe8"
      } ],
      "verificationStatus": {
        "coding": [ {
          "system": "http://terminology.hl7.org/CodeSystem/condition-ver-status",
          "code": "refuted",
          "display": "Refuted"
        }, {
          "system": "http://snomed.info/sct",
          "code": "410594000",
          "display": "Definitely NOT present (qualifier value)"
        } ]
      },
      "category": [ {
        "coding": [ {
          "system": "http://snomed.info/sct",
          "code": "394589003",
          "display": "Nephrology (qualifier value)"
        } ]
      } ],
      "code": {
        "coding": [ {
          "system": "http://fhir.de/CodeSystem/dimdi/icd-10-gm",
          "version": "2021",
          "code": "N18.9"
        }, {
          "system": "http://snomed.info/sct",
          "code": "709044004"
        } ]
      },
      "subject": {
        "reference": "Patient/532026d52cef4c0269e87d90da8bad79b28431d5f520945a0f2d61017576fd8d"
      },
      "encounter": {
        "reference": "Encounter/328723566c2469ff310f2958443bf255f62ac0de6c8c9d7b2d32cdb03b816858"
      },
      "_recordedDate": {
        "extension": [ {
          "url": "http://hl7.org/fhir/StructureDefinition/data-absent-reason",
          "valueCode": "unknown"
        } ]
      }
    },
    "request": {
      "method": "POST",
      "url": "Condition",
      "ifNoneExist": "identifier=https://mein.krankenhaus.de/fhir/NamingSystem/conditionId|17b8ef7a60543a9ae0848a23b2197189bae65ca85fce80cce5fab7a634eaf8fb"
    }
  }, {
    "fullUrl": "Condition/ab2cb7c319ebe623e27dba978a5f510d99053493254bf564d02aecf1fa0793e0",
    "resource": {
      "resourceType": "Condition",
      "meta": {
        "profile": [ "https://www.netzwerk-universitaetsmedizin.de/fhir/StructureDefinition/gastrointestinal-ulcers" ]
      },
      "modifierExtension": [ {
        "url": "https://www.netzwerk-universitaetsmedizin.de/fhir/StructureDefinition/uncertainty-of-presence",
        "valueCodeableConcept": {
          "coding": [ {
            "system": "http://snomed.info/sct",
            "code": "261665006",
            "display": "Unknown (qualifier value)"
          } ],
          "text": "Presence unknown."
        }
      } ],
      "identifier": [ {
        "system": "https://mein.krankenhaus.de/fhir/NamingSystem/conditionId",
        "value": "6fb73e45692b0b7eead9e024653edec9c919a81d69f3fb3bdd0412c7d6e6640c"
      } ],
      "category": [ {
        "coding": [ {
          "system": "http://snomed.info/sct",
          "code": "394584008",
          "display": "Gastroenterology (qualifier value))"
        } ]
      } ],
      "code": {
        "coding": [ {
          "system": "http://fhir.de/CodeSystem/dimdi/icd-10-gm",
          "version": "2021",
          "code": "K28"
        }, {
          "system": "http://snomed.info/sct",
          "code": "40845000"
        } ]
      },
      "subject": {
        "reference": "Patient/532026d52cef4c0269e87d90da8bad79b28431d5f520945a0f2d61017576fd8d"
      },
      "encounter": {
        "reference": "Encounter/328723566c2469ff310f2958443bf255f62ac0de6c8c9d7b2d32cdb03b816858"
      },
      "_recordedDate": {
        "extension": [ {
          "url": "http://hl7.org/fhir/StructureDefinition/data-absent-reason",
          "valueCode": "unknown"
        } ]
      }
    },
    "request": {
      "method": "POST",
      "url": "Condition",
      "ifNoneExist": "identifier=https://mein.krankenhaus.de/fhir/NamingSystem/conditionId|ab2cb7c319ebe623e27dba978a5f510d99053493254bf564d02aecf1fa0793e0"
    }
  }, {
    "fullUrl": "Observation/4ddefbf59b85aee58ea0d795c5a796448e456870fe058b06bc6454a39fa98321",
    "resource": {
      "resourceType": "Observation",
      "meta": {
        "profile": [ "https://www.netzwerk-universitaetsmedizin.de/fhir/StructureDefinition/smoking-status" ]
      },
      "identifier": [ {
        "system": "https://mein.krankenhaus.de/fhir/NamingSystem/observationId",
        "value": "0282c612dcd9dec1816629f00e19209bb804d189e65cafad56de26fcc980b5c9"
      } ],
      "status": "final",
      "category": [ {
        "coding": [ {
          "system": "http://terminology.hl7.org/CodeSystem/observation-category",
          "code": "social-history",
          "display": "Social History"
        } ]
      } ],
      "code": {
        "coding": [ {
          "system": "http://loinc.org",
          "code": "72166-2"
        } ]
      },
      "subject": {
        "reference": "Patient/532026d52cef4c0269e87d90da8bad79b28431d5f520945a0f2d61017576fd8d"
      },
      "encounter": {
        "reference": "Encounter/328723566c2469ff310f2958443bf255f62ac0de6c8c9d7b2d32cdb03b816858"
      },
      "_effectiveDateTime": {
        "extension": [ {
          "url": "http://hl7.org/fhir/StructureDefinition/data-absent-reason",
          "valueCode": "unknown"
        } ]
      },
      "valueCodeableConcept": {
        "coding": [ {
          "system": "http://loinc.org",
          "code": "LA18976-3"
        } ]
      }
    },
    "request": {
      "method": "POST",
      "url": "Observation",
      "ifNoneExist": "identifier=https://mein.krankenhaus.de/fhir/NamingSystem/observationId|4ddefbf59b85aee58ea0d795c5a796448e456870fe058b06bc6454a39fa98321"
    }
  }, {
    "fullUrl": "Procedure/35c7fb7c2bed1f9120693cd609b0233f3632957880cfc1fb9de9e36fd00f863e",
    "resource": {
      "resourceType": "Procedure",
      "meta": {
        "profile": [ "https://www.netzwerk-universitaetsmedizin.de/fhir/StructureDefinition/respiratory-therapies" ]
      },
      "identifier": [ {
        "system": "https://mein.krankenhaus.de/fhir/NamingSystem/procedureId",
        "value": "fbfc31715742c2aa9087bc4882d73d6f8e32ff5912dfb04e0a486fbfe92a033e"
      } ],
      "status": "in-progress",
      "category": {
        "coding": [ {
          "system": "http://snomed.info/sct",
          "code": "277132007",
          "display": "Therapeutic procedure (procedure)"
        } ]
      },
      "code": {
        "coding": [ {
          "system": "http://snomed.info/sct",
          "code": "53950000"
        } ]
      },
      "subject": {
        "reference": "Patient/532026d52cef4c0269e87d90da8bad79b28431d5f520945a0f2d61017576fd8d"
      },
      "encounter": {
        "reference": "Encounter/328723566c2469ff310f2958443bf255f62ac0de6c8c9d7b2d32cdb03b816858"
      },
      "_performedDateTime": {
        "extension": [ {
          "url": "http://hl7.org/fhir/StructureDefinition/data-absent-reason",
          "valueCode": "unknown"
        } ]
      }
    },
    "request": {
      "method": "POST",
      "url": "Procedure",
      "ifNoneExist": "identifier=https://mein.krankenhaus.de/fhir/NamingSystem/procedureId|35c7fb7c2bed1f9120693cd609b0233f3632957880cfc1fb9de9e36fd00f863e"
    }
  }, {
    "fullUrl": "Immunization/fae81b0e73b084cacc99761720dd63e58893b448f5e838396085ba9b35c0e76a",
    "resource": {
      "resourceType": "Immunization",
      "meta": {
        "profile": [ "https://www.netzwerk-universitaetsmedizin.de/fhir/StructureDefinition/immunization" ]
      },
      "identifier": [ {
        "system": "https://mein.krankenhaus.de/fhir/NamingSystem/immunizationId",
        "value": "29a004e7a11718c51a75b5aa24eaa72828cd5e6ccf7d17c60686229790d98117"
      } ],
      "status": "not-done",
      "vaccineCode": {
        "coding": [ {
          "system": "http://snomed.info/sct",
          "code": "836398006"
        } ]
      },
      "patient": {
        "reference": "Patient/532026d52cef4c0269e87d90da8bad79b28431d5f520945a0f2d61017576fd8d"
      },
      "encounter": {
        "reference": "Encounter/328723566c2469ff310f2958443bf255f62ac0de6c8c9d7b2d32cdb03b816858"
      },
      "_occurrenceDateTime": {
        "extension": [ {
          "url": "http://hl7.org/fhir/StructureDefinition/data-absent-reason",
          "valueCode": "unknown"
        } ]
      },
      "protocolApplied": [ {
        "targetDisease": [ {
          "coding": [ {
            "system": "http://snomed.info/sct",
            "code": "16814004"
          } ]
        } ],
        "_doseNumberString": {
          "extension": [ {
            "url": "http://hl7.org/fhir/StructureDefinition/data-absent-reason",
            "valueCode": "unknown"
          } ]
        }
      } ]
    },
    "request": {
      "method": "POST",
      "url": "Immunization",
      "ifNoneExist": "identifier=https://mein.krankenhaus.de/fhir/NamingSystem/immunizationId|fae81b0e73b084cacc99761720dd63e58893b448f5e838396085ba9b35c0e76a"
    }
  }, {
    "fullUrl": "Immunization/0e144590fed6b9ac97f6f5169b284cf772a886963a822886a33fc55fe148eedc",
    "resource": {
      "resourceType": "Immunization",
      "meta": {
        "profile": [ "https://www.netzwerk-universitaetsmedizin.de/fhir/StructureDefinition/immunization" ]
      },
      "identifier": [ {
        "system": "https://mein.krankenhaus.de/fhir/NamingSystem/immunizationId",
        "value": "4a145b351c3e4605cb36413bec58f1cbd3d777287ac8b7cb7572b18be429dd70"
      } ],
      "status": "not-done",
      "vaccineCode": {
        "coding": [ {
          "system": "http://snomed.info/sct",
          "code": "836402002"
        } ]
      },
      "patient": {
        "reference": "Patient/532026d52cef4c0269e87d90da8bad79b28431d5f520945a0f2d61017576fd8d"
      },
      "encounter": {
        "reference": "Encounter/328723566c2469ff310f2958443bf255f62ac0de6c8c9d7b2d32cdb03b816858"
      },
      "_occurrenceDateTime": {
        "extension": [ {
          "url": "http://hl7.org/fhir/StructureDefinition/data-absent-reason",
          "valueCode": "unknown"
        } ]
      },
      "protocolApplied": [ {
        "targetDisease": [ {
          "coding": [ {
            "system": "http://snomed.info/sct",
            "code": "56717001"
          } ]
        } ],
        "_doseNumberString": {
          "extension": [ {
            "url": "http://hl7.org/fhir/StructureDefinition/data-absent-reason",
            "valueCode": "unknown"
          } ]
        }
      } ]
    },
    "request": {
      "method": "POST",
      "url": "Immunization",
      "ifNoneExist": "identifier=https://mein.krankenhaus.de/fhir/NamingSystem/immunizationId|0e144590fed6b9ac97f6f5169b284cf772a886963a822886a33fc55fe148eedc"
    }
  }, {
    "fullUrl": "Immunization/a9c888a11e367fca2d9e8c9f246b50a6a582e3aff2527cc1fb1906ddcd68844c",
    "resource": {
      "resourceType": "Immunization",
      "meta": {
        "profile": [ "https://www.netzwerk-universitaetsmedizin.de/fhir/StructureDefinition/immunization" ]
      },
      "identifier": [ {
        "system": "https://mein.krankenhaus.de/fhir/NamingSystem/immunizationId",
        "value": "78c3f31e4fc7d31c220115a35571d4fc103e335cbc60ca5e48c2e99fa0d5896f"
      } ],
      "status": "completed",
      "vaccineCode": {
        "coding": [ {
          "system": "http://snomed.info/sct",
          "code": "1119349007"
        } ]
      },
      "patient": {
        "reference": "Patient/532026d52cef4c0269e87d90da8bad79b28431d5f520945a0f2d61017576fd8d"
      },
      "encounter": {
        "reference": "Encounter/328723566c2469ff310f2958443bf255f62ac0de6c8c9d7b2d32cdb03b816858"
      },
      "occurrenceDateTime": "2020-06-16",
      "protocolApplied": [ {
        "targetDisease": [ {
          "coding": [ {
            "system": "http://snomed.info/sct",
            "code": "840539006"
          } ]
        } ],
        "_doseNumberString": {
          "extension": [ {
            "url": "http://hl7.org/fhir/StructureDefinition/data-absent-reason",
            "valueCode": "unknown"
          } ]
        }
      } ]
    },
    "request": {
      "method": "POST",
      "url": "Immunization",
      "ifNoneExist": "identifier=https://mein.krankenhaus.de/fhir/NamingSystem/immunizationId|a9c888a11e367fca2d9e8c9f246b50a6a582e3aff2527cc1fb1906ddcd68844c"
    }
  }, {
    "fullUrl": "Immunization/45e592992eaddfd60919a9eb356fa78bd13c375d56bb9afe74ff18d1b235791e",
    "resource": {
      "resourceType": "Immunization",
      "meta": {
        "profile": [ "https://www.netzwerk-universitaetsmedizin.de/fhir/StructureDefinition/immunization" ]
      },
      "identifier": [ {
        "system": "https://mein.krankenhaus.de/fhir/NamingSystem/immunizationId",
        "value": "46daf3a1a5c011ec727e838e18bbd6ac15f5f65903485ee9df11ad8a0d5821b2"
      } ],
      "status": "completed",
      "vaccineCode": {
        "coding": [ {
          "system": "http://hl7.org/fhir/uv/ips/CodeSystem/absent-unknown-uv-ips",
          "code": "no-known-immunizations",
          "display": "vaccineCode unknown"
        } ]
      },
      "patient": {
        "reference": "Patient/532026d52cef4c0269e87d90da8bad79b28431d5f520945a0f2d61017576fd8d"
      },
      "encounter": {
        "reference": "Encounter/328723566c2469ff310f2958443bf255f62ac0de6c8c9d7b2d32cdb03b816858"
      },
      "occurrenceDateTime": "2020-01-23",
      "protocolApplied": [ {
        "targetDisease": [ {
          "coding": [ {
            "system": "http://snomed.info/sct",
            "code": "64572001"
          } ]
        } ],
        "_doseNumberString": {
          "extension": [ {
            "url": "http://hl7.org/fhir/StructureDefinition/data-absent-reason",
            "valueCode": "unknown"
          } ]
        }
      } ]
    },
    "request": {
      "method": "POST",
      "url": "Immunization",
      "ifNoneExist": "identifier=https://mein.krankenhaus.de/fhir/NamingSystem/immunizationId|45e592992eaddfd60919a9eb356fa78bd13c375d56bb9afe74ff18d1b235791e"
    }
  }, {
    "fullUrl": "Consent/c6fa82ec22d47a4dcdd8588aa181b2469fd2bbf0143a38aca34e2f923cc7345e",
    "resource": {
      "resourceType": "Consent",
      "meta": {
        "profile": [ "https://www.netzwerk-universitaetsmedizin.de/fhir/StructureDefinition/do-not-resuscitate-order" ]
      },
      "identifier": [ {
        "system": "https://mein.krankenhaus.de/fhir/NamingSystem/consentId",
        "value": "811083d80889ddb93a62ddb70cdc972cf1b3d1de44e57dd8275855578ab209d1"
      } ],
      "status": "active",
      "scope": {
        "coding": [ {
          "system": "http://terminology.hl7.org/CodeSystem/consentscope",
          "code": "adr",
          "display": "Advanced Care Directive"
        } ]
      },
      "category": [ {
        "coding": [ {
          "system": "http://terminology.hl7.org/CodeSystem/consentcategorycodes",
          "code": "dnr",
          "display": "Do Not Resuscitate"
        } ]
      } ],
      "patient": {
        "reference": "Patient/532026d52cef4c0269e87d90da8bad79b28431d5f520945a0f2d61017576fd8d"
      },
      "policy": [ {
        "uri": "https://www.aerzteblatt.de/archiv/65440/DNR-Anordnungen-Das-fehlende-Bindeglied"
      } ],
      "provision": {
        "code": [ {
          "coding": [ {
            "system": "http://snomed.info/sct",
            "code": "304252001"
          } ]
        } ]
      }
    },
    "request": {
      "method": "POST",
      "url": "Consent",
      "ifNoneExist": "identifier=https://mein.krankenhaus.de/fhir/NamingSystem/consentId|c6fa82ec22d47a4dcdd8588aa181b2469fd2bbf0143a38aca34e2f923cc7345e"
    }
  }, {
    "fullUrl": "Observation/471c152ece65e115ba99e19ef18db2860c823c2bfc7ffbf42ded264ba0493214",
    "resource": {
      "resourceType": "Observation",
      "meta": {
        "profile": [ "https://www.netzwerk-universitaetsmedizin.de/fhir/StructureDefinition/sex-assigned-at-birth" ]
      },
      "identifier": [ {
        "system": "https://mein.krankenhaus.de/fhir/NamingSystem/observationId",
        "value": "9b6aa456feb36f069d0ffff3b3753ba3030bdd9be832f82b58b351b705487c82"
      } ],
      "status": "final",
      "category": [ {
        "coding": [ {
          "system": "http://terminology.hl7.org/CodeSystem/observation-category",
          "code": "social-history",
          "display": "Social History"
        } ]
      } ],
      "code": {
        "coding": [ {
          "system": "http://loinc.org",
          "code": "76689-9"
        } ]
      },
      "subject": {
        "reference": "Patient/532026d52cef4c0269e87d90da8bad79b28431d5f520945a0f2d61017576fd8d"
      },
      "encounter": {
        "reference": "Encounter/328723566c2469ff310f2958443bf255f62ac0de6c8c9d7b2d32cdb03b816858"
      },
      "_effectiveDateTime": {
        "extension": [ {
          "url": "http://hl7.org/fhir/StructureDefinition/data-absent-reason",
          "valueCode": "unknown"
        } ]
      },
      "valueCodeableConcept": {
        "coding": [ {
          "system": "http://fhir.de/CodeSystem/gender-amtlich-de",
          "code": "D"
        } ]
      }
    },
    "request": {
      "method": "POST",
      "url": "Observation",
      "ifNoneExist": "identifier=https://mein.krankenhaus.de/fhir/NamingSystem/observationId|471c152ece65e115ba99e19ef18db2860c823c2bfc7ffbf42ded264ba0493214"
    }
  }, {
    "fullUrl": "Observation/dd2aed7ce74a2fcbd12d1dcaab0a3c627e30b9b2cce87d1ced6114dda1463fc7",
    "resource": {
      "resourceType": "Observation",
      "meta": {
        "profile": [ "https://www.netzwerk-universitaetsmedizin.de/fhir/StructureDefinition/frailty-score" ]
      },
      "identifier": [ {
        "type": {
          "coding": [ {
            "system": "http://terminology.hl7.org/CodeSystem/v2-0203",
            "code": "OBI",
            "display": "Observation Instance Identifier"
          } ]
        },
        "system": "https://mein.krankenhaus.de/fhir/NamingSystem/observationId",
        "value": "ddcd665fa334f27601ffe351f40867e52b0af6fce0d9d1c670863b226b0dcb76",
        "assigner": {
          "reference": "Organization/3a4f3433bce81181bad2d8e0b8fafccf7dc800bc06f29be73dcb38b750a48f9a"
        }
      } ],
      "status": "final",
      "category": [ {
        "coding": [ {
          "system": "http://terminology.hl7.org/CodeSystem/observation-category",
          "code": "survey",
          "display": "Survey"
        } ]
      } ],
      "code": {
        "coding": [ {
          "system": "http://snomed.info/sct",
          "code": "763264000"
        } ],
        "text": "Frailty Scale Score"
      },
      "subject": {
        "reference": "Patient/532026d52cef4c0269e87d90da8bad79b28431d5f520945a0f2d61017576fd8d"
      },
      "encounter": {
        "reference": "Encounter/328723566c2469ff310f2958443bf255f62ac0de6c8c9d7b2d32cdb03b816858"
      },
      "_effectiveDateTime": {
        "extension": [ {
          "url": "http://hl7.org/fhir/StructureDefinition/data-absent-reason",
          "valueCode": "unknown"
        } ]
      },
      "valueCodeableConcept": {
        "coding": [ {
          "system": "https://www.netzwerk-universitaetsmedizin.de/fhir/CodeSystem/frailty-score",
          "code": "8"
        } ]
      },
      "method": {
        "coding": [ {
          "system": "http://snomed.info/sct",
          "code": "445414007",
          "display": "Canadian Study of Health and Aging clinical frailty scale"
        } ]
      }
    },
    "request": {
      "method": "POST",
      "url": "Observation",
      "ifNoneExist": "identifier=https://mein.krankenhaus.de/fhir/NamingSystem/observationId|dd2aed7ce74a2fcbd12d1dcaab0a3c627e30b9b2cce87d1ced6114dda1463fc7"
    }
  }, {
    "fullUrl": "Observation/4e244ae6884f1e14807a391da5c5a18cc0cc70900364253321291a7c3fa27be5",
    "resource": {
      "resourceType": "Observation",
      "meta": {
        "profile": [ "https://www.netzwerk-universitaetsmedizin.de/fhir/StructureDefinition/body-weight" ]
      },
      "identifier": [ {
        "type": {
          "coding": [ {
            "system": "http://terminology.hl7.org/CodeSystem/v2-0203",
            "code": "OBI",
            "display": "Observation Instance Identifier"
          } ]
        },
        "system": "https://mein.krankenhaus.de/fhir/NamingSystem/observationId",
        "value": "5968c8d6c332ec15af838913454fdef36d980e82b1b77c6650ccb4fcc2362f5b",
        "assigner": {
          "reference": "Organization/3a4f3433bce81181bad2d8e0b8fafccf7dc800bc06f29be73dcb38b750a48f9a"
        }
      } ],
      "status": "final",
      "category": [ {
        "coding": [ {
          "system": "http://terminology.hl7.org/CodeSystem/observation-category",
          "code": "vital-signs",
          "display": "Vital Signs"
        } ]
      } ],
      "code": {
        "coding": [ {
          "system": "http://loinc.org",
          "code": "29463-7"
        }, {
          "system": "http://snomed.info/sct",
          "code": "27113001"
        } ],
        "text": "Body Weight"
      },
      "subject": {
        "reference": "Patient/532026d52cef4c0269e87d90da8bad79b28431d5f520945a0f2d61017576fd8d"
      },
      "encounter": {
        "reference": "Encounter/328723566c2469ff310f2958443bf255f62ac0de6c8c9d7b2d32cdb03b816858"
      },
      "_effectiveDateTime": {
        "extension": [ {
          "url": "http://hl7.org/fhir/StructureDefinition/data-absent-reason",
          "valueCode": "unknown"
        } ]
      },
      "valueQuantity": {
        "value": 166,
        "unit": "kilogram",
        "system": "http://unitsofmeasure.org",
        "code": "kg"
      }
    },
    "request": {
      "method": "POST",
      "url": "Observation",
      "ifNoneExist": "identifier=https://mein.krankenhaus.de/fhir/NamingSystem/observationId|4e244ae6884f1e14807a391da5c5a18cc0cc70900364253321291a7c3fa27be5"
    }
  }, {
    "fullUrl": "Observation/eb66dd43d91e786016fee1895a89cb99c5acb7e4d05c6d281400f76acdc389b4",
    "resource": {
      "resourceType": "Observation",
      "meta": {
        "profile": [ "https://www.netzwerk-universitaetsmedizin.de/fhir/StructureDefinition/body-height" ]
      },
      "identifier": [ {
        "type": {
          "coding": [ {
            "system": "http://terminology.hl7.org/CodeSystem/v2-0203",
            "code": "OBI",
            "display": "Observation Instance Identifier"
          } ]
        },
        "system": "https://mein.krankenhaus.de/fhir/NamingSystem/observationId",
        "value": "334627073489cad9a7b87505c1ff800f25ee741cc0427f249f002600c287fc55",
        "assigner": {
          "reference": "Organization/3a4f3433bce81181bad2d8e0b8fafccf7dc800bc06f29be73dcb38b750a48f9a"
        }
      } ],
      "status": "final",
      "category": [ {
        "coding": [ {
          "system": "http://terminology.hl7.org/CodeSystem/observation-category",
          "code": "vital-signs",
          "display": "Vital Signs"
        } ]
      } ],
      "code": {
        "coding": [ {
          "system": "http://loinc.org",
          "code": "8302-2"
        }, {
          "system": "http://snomed.info/sct",
          "code": "50373000"
        } ],
        "text": "Body height"
      },
      "subject": {
        "reference": "Patient/532026d52cef4c0269e87d90da8bad79b28431d5f520945a0f2d61017576fd8d"
      },
      "encounter": {
        "reference": "Encounter/328723566c2469ff310f2958443bf255f62ac0de6c8c9d7b2d32cdb03b816858"
      },
      "_effectiveDateTime": {
        "extension": [ {
          "url": "http://hl7.org/fhir/StructureDefinition/data-absent-reason",
          "valueCode": "unknown"
        } ]
      },
      "valueQuantity": {
        "value": 175,
        "unit": "centimeter",
        "system": "http://unitsofmeasure.org",
        "code": "cm"
      }
    },
    "request": {
      "method": "POST",
      "url": "Observation",
      "ifNoneExist": "identifier=https://mein.krankenhaus.de/fhir/NamingSystem/observationId|eb66dd43d91e786016fee1895a89cb99c5acb7e4d05c6d281400f76acdc389b4"
    }
  }, {
    "fullUrl": "Observation/12d31b71c67fb458aca55b6cfd7be36e55286ca0542dc8d0dab8606ca9e7e0de",
    "resource": {
      "resourceType": "Observation",
      "meta": {
        "profile": [ "https://www.netzwerk-universitaetsmedizin.de/fhir/StructureDefinition/known-exposure" ]
      },
      "identifier": [ {
        "type": {
          "coding": [ {
            "system": "http://terminology.hl7.org/CodeSystem/v2-0203",
            "code": "OBI",
            "display": "Observation Instance Identifier"
          } ]
        },
        "system": "https://mein.krankenhaus.de/fhir/NamingSystem/observationId",
        "value": "91e73a821bb4cce9ebb01cc4d0e646bb5bfb63bafa8b342a6a7620164cc3e6eb",
        "assigner": {
          "reference": "Organization/3a4f3433bce81181bad2d8e0b8fafccf7dc800bc06f29be73dcb38b750a48f9a"
        }
      } ],
      "status": "final",
      "category": [ {
        "coding": [ {
          "system": "http://terminology.hl7.org/CodeSystem/observation-category",
          "code": "social-history",
          "display": "Social History"
        } ]
      } ],
      "code": {
        "coding": [ {
          "system": "http://loinc.org",
          "code": "88636-6"
        } ],
        "text": "Known exposure"
      },
      "subject": {
        "reference": "Patient/532026d52cef4c0269e87d90da8bad79b28431d5f520945a0f2d61017576fd8d"
      },
      "encounter": {
        "reference": "Encounter/328723566c2469ff310f2958443bf255f62ac0de6c8c9d7b2d32cdb03b816858"
      },
      "_effectiveDateTime": {
        "extension": [ {
          "url": "http://hl7.org/fhir/StructureDefinition/data-absent-reason",
          "valueCode": "unknown"
        } ]
      },
      "valueCodeableConcept": {
        "coding": [ {
          "system": "http://snomed.info/sct",
          "code": "840546002"
        } ]
      }
    },
    "request": {
      "method": "POST",
      "url": "Observation",
      "ifNoneExist": "identifier=https://mein.krankenhaus.de/fhir/NamingSystem/observationId|12d31b71c67fb458aca55b6cfd7be36e55286ca0542dc8d0dab8606ca9e7e0de"
    }
  }, {
    "fullUrl": "Procedure/5533c74b6625788e45e6d386fb803cc02d3aab8412c74800138b7b29609f65cb",
    "resource": {
      "resourceType": "Procedure",
      "meta": {
        "profile": [ "https://www.netzwerk-universitaetsmedizin.de/fhir/StructureDefinition/dialysis" ]
      },
      "identifier": [ {
        "system": "https://mein.krankenhaus.de/fhir/NamingSystem/procedureId",
        "value": "eb6b831bac140cd96b2698a735864263d229359a6551501f1b80a5ec09c61a96"
      } ],
      "status": "in-progress",
      "category": {
        "coding": [ {
          "system": "http://snomed.info/sct",
          "code": "277132007",
          "display": "Therapeutic procedure (procedure)"
        } ]
      },
      "code": {
        "coding": [ {
          "system": "http://snomed.info/sct",
          "code": "108241001"
        } ],
        "text": "Dialysis"
      },
      "subject": {
        "reference": "Patient/532026d52cef4c0269e87d90da8bad79b28431d5f520945a0f2d61017576fd8d"
      },
      "encounter": {
        "reference": "Encounter/328723566c2469ff310f2958443bf255f62ac0de6c8c9d7b2d32cdb03b816858"
      },
      "_performedDateTime": {
        "extension": [ {
          "url": "http://hl7.org/fhir/StructureDefinition/data-absent-reason",
          "valueCode": "unknown"
        } ]
      }
    },
    "request": {
      "method": "POST",
      "url": "Procedure",
      "ifNoneExist": "identifier=https://mein.krankenhaus.de/fhir/NamingSystem/procedureId|5533c74b6625788e45e6d386fb803cc02d3aab8412c74800138b7b29609f65cb"
    }
  }, {
    "fullUrl": "Procedure/0f60698b1d8c3243c9c2ddbd94c3a5e50b2e7e89e6ce7810b78a5dfb7879439c",
    "resource": {
      "resourceType": "Procedure",
      "meta": {
        "profile": [ "https://www.netzwerk-universitaetsmedizin.de/fhir/StructureDefinition/apheresis" ]
      },
      "identifier": [ {
        "system": "https://mein.krankenhaus.de/fhir/NamingSystem/procedureId",
        "value": "1ba7ec60849dedbdd37683fce5650683249b4a9720741903634ee8beeadf4493"
      } ],
      "status": "unknown",
      "category": {
        "coding": [ {
          "system": "http://snomed.info/sct",
          "code": "277132007",
          "display": "Therapeutic procedure (procedure)"
        } ]
      },
      "code": {
        "coding": [ {
          "system": "http://snomed.info/sct",
          "code": "127788007"
        } ],
        "text": "Apheresis"
      },
      "subject": {
        "reference": "Patient/532026d52cef4c0269e87d90da8bad79b28431d5f520945a0f2d61017576fd8d"
      },
      "encounter": {
        "reference": "Encounter/328723566c2469ff310f2958443bf255f62ac0de6c8c9d7b2d32cdb03b816858"
      },
      "_performedDateTime": {
        "extension": [ {
          "url": "http://hl7.org/fhir/StructureDefinition/data-absent-reason",
          "valueCode": "unknown"
        } ]
      }
    },
    "request": {
      "method": "POST",
      "url": "Procedure",
      "ifNoneExist": "identifier=https://mein.krankenhaus.de/fhir/NamingSystem/procedureId|0f60698b1d8c3243c9c2ddbd94c3a5e50b2e7e89e6ce7810b78a5dfb7879439c"
    }
  }, {
    "fullUrl": "Procedure/fbaad9ab58af9d4032d0cc295341d596a92e57cd0aec3562bc4ee8c18977ba39",
    "resource": {
      "resourceType": "Procedure",
      "meta": {
        "profile": [ "https://www.netzwerk-universitaetsmedizin.de/fhir/StructureDefinition/prone-position" ]
      },
      "identifier": [ {
        "system": "https://mein.krankenhaus.de/fhir/NamingSystem/procedureId",
        "value": "b9d82c9603dd01e0f4ede854ed9df41c76f1b89ab086b500fe254a5384d4b216"
      } ],
      "status": "unknown",
      "category": {
        "coding": [ {
          "system": "http://snomed.info/sct",
          "code": "225287004",
          "display": "Procedures relating to positioning and support (procedure)"
        } ]
      },
      "code": {
        "coding": [ {
          "system": "http://snomed.info/sct",
          "code": "431182000"
        } ],
        "text": "Prone position"
      },
      "subject": {
        "reference": "Patient/532026d52cef4c0269e87d90da8bad79b28431d5f520945a0f2d61017576fd8d"
      },
      "encounter": {
        "reference": "Encounter/328723566c2469ff310f2958443bf255f62ac0de6c8c9d7b2d32cdb03b816858"
      },
      "_performedDateTime": {
        "extension": [ {
          "url": "http://hl7.org/fhir/StructureDefinition/data-absent-reason",
          "valueCode": "unknown"
        } ]
      }
    },
    "request": {
      "method": "POST",
      "url": "Procedure",
      "ifNoneExist": "identifier=https://mein.krankenhaus.de/fhir/NamingSystem/procedureId|fbaad9ab58af9d4032d0cc295341d596a92e57cd0aec3562bc4ee8c18977ba39"
    }
  }, {
    "fullUrl": "Procedure/3199c43875667e391129a9509747a69970d2a97e4ea3a1c13bc157352bcc88de",
    "resource": {
      "resourceType": "Procedure",
      "meta": {
        "profile": [ "https://www.netzwerk-universitaetsmedizin.de/fhir/StructureDefinition/extracorporeal-membrane-oxygenation" ]
      },
      "identifier": [ {
        "system": "https://mein.krankenhaus.de/fhir/NamingSystem/procedureId",
        "value": "88b1d56efaea09091d698fdc28d3055b9034747098e0a999340409e6d914aae5"
      } ],
      "status": "unknown",
      "category": {
        "coding": [ {
          "system": "http://snomed.info/sct",
          "code": "277132007",
          "display": "Therapeutic procedure (procedure)"
        } ]
      },
      "code": {
        "coding": [ {
          "system": "http://snomed.info/sct",
          "code": "233573008"
        } ],
        "text": "ECMO"
      },
      "subject": {
        "reference": "Patient/532026d52cef4c0269e87d90da8bad79b28431d5f520945a0f2d61017576fd8d"
      },
      "encounter": {
        "reference": "Encounter/328723566c2469ff310f2958443bf255f62ac0de6c8c9d7b2d32cdb03b816858"
      },
      "_performedDateTime": {
        "extension": [ {
          "url": "http://hl7.org/fhir/StructureDefinition/data-absent-reason",
          "valueCode": "unknown"
        } ]
      }
    },
    "request": {
      "method": "POST",
      "url": "Procedure",
      "ifNoneExist": "identifier=https://mein.krankenhaus.de/fhir/NamingSystem/procedureId|3199c43875667e391129a9509747a69970d2a97e4ea3a1c13bc157352bcc88de"
    }
  }, {
    "fullUrl": "Procedure/0445eca0104f325cda2722b8e1023ee15fc3326a9fa5974fd8bca84e52cbc200",
    "resource": {
      "resourceType": "Procedure",
      "meta": {
        "profile": [ "https://www.netzwerk-universitaetsmedizin.de/fhir/StructureDefinition/respiratory-therapies" ]
      },
      "identifier": [ {
        "system": "https://mein.krankenhaus.de/fhir/NamingSystem/procedureId",
        "value": "d4aa638cfcc2764ddb00792a4232d5066e316138ff517762fa1059dbe2b9022f"
      } ],
      "status": "in-progress",
      "category": {
        "coding": [ {
          "system": "http://snomed.info/sct",
          "code": "277132007",
          "display": "Therapeutic procedure (procedure)"
        } ]
      },
      "code": {
        "coding": [ {
          "system": "http://snomed.info/sct",
          "code": "40617009:425391005=26412008"
        } ]
      },
      "subject": {
        "reference": "Patient/532026d52cef4c0269e87d90da8bad79b28431d5f520945a0f2d61017576fd8d"
      },
      "encounter": {
        "reference": "Encounter/328723566c2469ff310f2958443bf255f62ac0de6c8c9d7b2d32cdb03b816858"
      },
      "_performedDateTime": {
        "extension": [ {
          "url": "http://hl7.org/fhir/StructureDefinition/data-absent-reason",
          "valueCode": "unknown"
        } ]
      },
      "usedCode": [ {
        "coding": [ {
          "system": "http://snomed.info/sct",
          "code": "26412008"
        } ]
      } ]
    },
    "request": {
      "method": "POST",
      "url": "Procedure",
      "ifNoneExist": "identifier=https://mein.krankenhaus.de/fhir/NamingSystem/procedureId|0445eca0104f325cda2722b8e1023ee15fc3326a9fa5974fd8bca84e52cbc200"
    }
  }, {
    "fullUrl": "Observation/37998dd3c7bd659abea1a7d834911b594fd2a26db04ee0ac9d9b9c73d774d573",
    "resource": {
      "resourceType": "Observation",
      "meta": {
        "profile": [ "https://www.netzwerk-universitaetsmedizin.de/fhir/StructureDefinition/patient-in-icu" ]
      },
      "identifier": [ {
        "system": "https://mein.krankenhaus.de/fhir/NamingSystem/observationId",
        "value": "232e3586739b71909914001e0ad00306aab00f36ae3c5b359d72d4d2e49d24eb"
      } ],
      "status": "final",
      "category": [ {
        "coding": [ {
          "system": "http://terminology.hl7.org/CodeSystem/observation-category",
          "code": "survey",
          "display": "Survey"
        } ]
      } ],
      "code": {
        "coding": [ {
          "system": "https://www.netzwerk-universitaetsmedizin.de/fhir/CodeSystem/ecrf-parameter-codes",
          "code": "01",
          "display": "Is the patient in the intensive care unit?"
        } ]
      },
      "subject": {
        "reference": "Patient/532026d52cef4c0269e87d90da8bad79b28431d5f520945a0f2d61017576fd8d"
      },
      "encounter": {
        "reference": "Encounter/328723566c2469ff310f2958443bf255f62ac0de6c8c9d7b2d32cdb03b816858"
      },
      "_effectiveDateTime": {
        "extension": [ {
          "url": "http://hl7.org/fhir/StructureDefinition/data-absent-reason",
          "valueCode": "unknown"
        } ]
      },
      "valueCodeableConcept": {
        "coding": [ {
          "system": "http://snomed.info/sct",
          "code": "373066001"
        } ]
      }
    },
    "request": {
      "method": "POST",
      "url": "Observation",
      "ifNoneExist": "identifier=https://mein.krankenhaus.de/fhir/NamingSystem/observationId|37998dd3c7bd659abea1a7d834911b594fd2a26db04ee0ac9d9b9c73d774d573"
    }
  }, {
    "fullUrl": "Condition/f88c23278b023b18a76ecee7a85f2bb8493e76e6b787b0af7114979e4ac18462",
    "resource": {
      "resourceType": "Condition",
      "meta": {
        "profile": [ "https://www.netzwerk-universitaetsmedizin.de/fhir/StructureDefinition/dependence-on-ventilator" ]
      },
      "identifier": [ {
        "system": "https://mein.krankenhaus.de/fhir/NamingSystem/conditionId",
        "value": "06472c60650f9d8d20b3d796e1955af4ad43f01d087a0747e6d620d58382b472"
      } ],
      "clinicalStatus": {
        "coding": [ {
          "system": "http://terminology.hl7.org/CodeSystem/condition-clinical",
          "code": "active",
          "display": "Active"
        } ]
      },
      "verificationStatus": {
        "coding": [ {
          "system": "http://terminology.hl7.org/CodeSystem/condition-ver-status",
          "code": "refuted",
          "display": "Refuted"
        }, {
          "system": "http://snomed.info/sct",
          "code": "410594000",
          "display": "Definitely NOT present (qualifier value)"
        } ]
      },
      "category": [ {
        "coding": [ {
          "system": "http://snomed.info/sct",
          "code": "404989005",
          "display": "Ventilation status (observable entity)"
        } ]
      } ],
      "code": {
        "coding": [ {
          "system": "http://snomed.info/sct",
          "code": "444932008"
        } ]
      },
      "subject": {
        "reference": "Patient/532026d52cef4c0269e87d90da8bad79b28431d5f520945a0f2d61017576fd8d"
      },
      "encounter": {
        "reference": "Encounter/328723566c2469ff310f2958443bf255f62ac0de6c8c9d7b2d32cdb03b816858"
      },
      "_recordedDate": {
        "extension": [ {
          "url": "http://hl7.org/fhir/StructureDefinition/data-absent-reason",
          "valueCode": "unknown"
        } ]
      }
    },
    "request": {
      "method": "POST",
      "url": "Condition",
      "ifNoneExist": "identifier=https://mein.krankenhaus.de/fhir/NamingSystem/conditionId|f88c23278b023b18a76ecee7a85f2bb8493e76e6b787b0af7114979e4ac18462"
    }
  }, {
    "fullUrl": "Observation/0a198e0c8ca9687d1defc444005be1fb702f9800190f5d2f11c05c1f8e2bac8d",
    "resource": {
      "resourceType": "Observation",
      "meta": {
        "profile": [ "https://www.netzwerk-universitaetsmedizin.de/fhir/StructureDefinition/sars-cov-2-rt-pcr" ]
      },
      "identifier": [ {
        "type": {
          "coding": [ {
            "system": "http://terminology.hl7.org/CodeSystem/v2-0203",
            "code": "OBI",
            "display": "Observation Instance Identifier"
          } ]
        },
        "system": "https://mein.krankenhaus.de/fhir/NamingSystem/observationId",
        "value": "6a48f9562e1492ea1cbbee0d112206286a414a759e95a6cc22437330703d8cb8",
        "assigner": {
          "reference": "Organization/3a4f3433bce81181bad2d8e0b8fafccf7dc800bc06f29be73dcb38b750a48f9a"
        }
      } ],
      "status": "final",
      "category": [ {
        "coding": [ {
          "system": "http://terminology.hl7.org/CodeSystem/observation-category",
          "code": "laboratory",
          "display": "Laboratory"
        }, {
          "system": "http://loinc.org",
          "code": "26436-6",
          "display": "Laboratory studies (set)"
        } ]
      } ],
      "code": {
        "coding": [ {
          "system": "http://loinc.org",
          "code": "94500-6"
        } ]
      },
      "subject": {
        "reference": "Patient/532026d52cef4c0269e87d90da8bad79b28431d5f520945a0f2d61017576fd8d"
      },
      "encounter": {
        "reference": "Encounter/328723566c2469ff310f2958443bf255f62ac0de6c8c9d7b2d32cdb03b816858"
      },
      "_effectiveDateTime": {
        "extension": [ {
          "url": "http://hl7.org/fhir/StructureDefinition/data-absent-reason",
          "valueCode": "unknown"
        } ]
      },
      "valueCodeableConcept": {
        "coding": [ {
          "system": "http://snomed.info/sct",
          "code": "260373001"
        } ]
      }
    },
    "request": {
      "method": "POST",
      "url": "Observation",
      "ifNoneExist": "identifier=https://mein.krankenhaus.de/fhir/NamingSystem/observationId|0a198e0c8ca9687d1defc444005be1fb702f9800190f5d2f11c05c1f8e2bac8d"
    }
  }, {
    "fullUrl": "MedicationStatement/498f424fab4bbc8775fe1d9edbd4ee3630b80003709d1cc30275f8d46f760199",
    "resource": {
      "resourceType": "MedicationStatement",
      "meta": {
        "profile": [ "https://www.netzwerk-universitaetsmedizin.de/fhir/StructureDefinition/pharmacological-therapy" ]
      },
      "identifier": [ {
        "system": "https://mein.krankenhaus.de/fhir/NamingSystem/medicationstatementId",
        "value": "677d4b01ff6549c916a0b4fd1b064b4f09fe516be37e7ba8a6853ca36d88520e"
      } ],
      "status": "unknown",
      "medicationCodeableConcept": {
        "coding": [ {
          "system": "http://snomed.info/sct",
          "code": "41549009"
        } ],
        "text": "ACE inhibitors"
      },
      "subject": {
        "reference": "Patient/532026d52cef4c0269e87d90da8bad79b28431d5f520945a0f2d61017576fd8d"
      },
      "effectiveDateTime": "2020-07-06T20:42:00+00:00"
    },
    "request": {
      "method": "POST",
      "url": "MedicationStatement",
      "ifNoneExist": "identifier=https://mein.krankenhaus.de/fhir/NamingSystem/medicationstatementId|498f424fab4bbc8775fe1d9edbd4ee3630b80003709d1cc30275f8d46f760199"
    }
  }, {
    "fullUrl": "MedicationStatement/54cdcb82630b92a209f653ae4d9407f69dd7effae78abdefebaed3842498e488",
    "resource": {
      "resourceType": "MedicationStatement",
      "meta": {
        "profile": [ "https://www.netzwerk-universitaetsmedizin.de/fhir/StructureDefinition/pharmacological-therapy" ]
      },
      "identifier": [ {
        "system": "https://mein.krankenhaus.de/fhir/NamingSystem/medicationstatementId",
        "value": "c9387683a8cd7a24a28773882bd5acd9cf65c621af15f3165790fb2eef69d46d"
      } ],
      "status": "not-taken",
      "medicationCodeableConcept": {
        "coding": [ {
          "system": "http://snomed.info/sct",
          "code": "333710000"
        } ],
        "text": "immunoglobulins"
      },
      "subject": {
        "reference": "Patient/532026d52cef4c0269e87d90da8bad79b28431d5f520945a0f2d61017576fd8d"
      },
      "effectiveDateTime": "2020-07-06T20:42:00+00:00"
    },
    "request": {
      "method": "POST",
      "url": "MedicationStatement",
      "ifNoneExist": "identifier=https://mein.krankenhaus.de/fhir/NamingSystem/medicationstatementId|54cdcb82630b92a209f653ae4d9407f69dd7effae78abdefebaed3842498e488"
    }
  }, {
    "fullUrl": "Observation/e337348f9973ffca51a5d2907f4b902c8617f4e6756aad1fc72ab6a3591ec9fa",
    "resource": {
      "resourceType": "Observation",
      "meta": {
        "profile": [ "https://www.netzwerk-universitaetsmedizin.de/fhir/StructureDefinition/carbon-dioxide-partial-pressure" ]
      },
      "identifier": [ {
        "type": {
          "coding": [ {
            "system": "http://terminology.hl7.org/CodeSystem/v2-0203",
            "code": "OBI",
            "display": "Observation Instance Identifier"
          } ]
        },
        "system": "https://mein.krankenhaus.de/fhir/NamingSystem/observationId",
        "value": "edb4c7f79bf7608dfcde677537d8cac3eea9b377e42f8b2c3f84cd661704b97f",
        "assigner": {
          "reference": "Organization/3a4f3433bce81181bad2d8e0b8fafccf7dc800bc06f29be73dcb38b750a48f9a"
        }
      } ],
      "status": "final",
      "category": [ {
        "coding": [ {
          "system": "http://terminology.hl7.org/CodeSystem/observation-category",
          "code": "laboratory",
          "display": "Laboratory"
        }, {
          "system": "http://loinc.org",
          "code": "26436-6",
          "display": "Laboratory studies (set)"
        }, {
          "system": "http://loinc.org",
          "code": "18767-4",
          "display": "Blood gas studies (set)"
        } ]
      } ],
      "code": {
        "coding": [ {
          "system": "http://loinc.org",
          "code": "11557-6"
        } ],
        "text": "Carbon dioxide [Partial pressure] in blood"
      },
      "subject": {
        "reference": "Patient/532026d52cef4c0269e87d90da8bad79b28431d5f520945a0f2d61017576fd8d"
      },
      "encounter": {
        "reference": "Encounter/328723566c2469ff310f2958443bf255f62ac0de6c8c9d7b2d32cdb03b816858"
      },
      "effectiveDateTime": "2020-10-31T10:25:00+00:00",
      "valueQuantity": {
        "value": 190,
        "unit": "mmHg",
        "system": "http://unitsofmeasure.org",
        "code": "mm[Hg]"
      }
    },
    "request": {
      "method": "POST",
      "url": "Observation",
      "ifNoneExist": "identifier=https://mein.krankenhaus.de/fhir/NamingSystem/observationId|e337348f9973ffca51a5d2907f4b902c8617f4e6756aad1fc72ab6a3591ec9fa"
    }
  }, {
    "fullUrl": "Observation/3b85ba401c80716f93ea788d712f4bcbbe5d958faadef46998afa85a60f87000",
    "resource": {
      "resourceType": "Observation",
      "meta": {
        "profile": [ "https://www.netzwerk-universitaetsmedizin.de/fhir/StructureDefinition/oxygen-partial-pressure" ]
      },
      "identifier": [ {
        "type": {
          "coding": [ {
            "system": "http://terminology.hl7.org/CodeSystem/v2-0203",
            "code": "OBI",
            "display": "Observation Instance Identifier"
          } ]
        },
        "system": "https://mein.krankenhaus.de/fhir/NamingSystem/observationId",
        "value": "a2a9b8f0f2f7be9c66f866bb9b09546a69d9593ca8e758fcfbe2fa6455925350",
        "assigner": {
          "reference": "Organization/3a4f3433bce81181bad2d8e0b8fafccf7dc800bc06f29be73dcb38b750a48f9a"
        }
      } ],
      "status": "final",
      "category": [ {
        "coding": [ {
          "system": "http://terminology.hl7.org/CodeSystem/observation-category",
          "code": "laboratory",
          "display": "Laboratory"
        }, {
          "system": "http://loinc.org",
          "code": "26436-6",
          "display": "Laboratory studies (set)"
        }, {
          "system": "http://loinc.org",
          "code": "18767-4",
          "display": "Blood gas studies (set)"
        } ]
      } ],
      "code": {
        "coding": [ {
          "system": "http://loinc.org",
          "code": "11557-8"
        } ],
        "text": "Oxygen [Partial pressure] in blood"
      },
      "subject": {
        "reference": "Patient/532026d52cef4c0269e87d90da8bad79b28431d5f520945a0f2d61017576fd8d"
      },
      "encounter": {
        "reference": "Encounter/328723566c2469ff310f2958443bf255f62ac0de6c8c9d7b2d32cdb03b816858"
      },
      "effectiveDateTime": "2020-10-31T10:25:00+00:00",
      "valueQuantity": {
        "value": 12,
        "unit": "mmHg",
        "system": "http://unitsofmeasure.org",
        "code": "mm[Hg]"
      }
    },
    "request": {
      "method": "POST",
      "url": "Observation",
      "ifNoneExist": "identifier=https://mein.krankenhaus.de/fhir/NamingSystem/observationId|3b85ba401c80716f93ea788d712f4bcbbe5d958faadef46998afa85a60f87000"
    }
  }, {
    "fullUrl": "Observation/8db6eb7d2757b68b561d667ebb5676dbf20a7a468d38f047f53885ef398de6bd",
    "resource": {
      "resourceType": "Observation",
      "meta": {
        "profile": [ "https://www.netzwerk-universitaetsmedizin.de/fhir/StructureDefinition/inhaled-oxygen-concentration" ]
      },
      "identifier": [ {
        "type": {
          "coding": [ {
            "system": "http://terminology.hl7.org/CodeSystem/v2-0203",
            "code": "OBI",
            "display": "Observation Instance Identifier"
          } ]
        },
        "system": "https://mein.krankenhaus.de/fhir/NamingSystem/observationId",
        "value": "f35317cf6655e4c77ca627bbd204b83280e89409bdfb859b8dd1f236a75ecb28",
        "assigner": {
          "reference": "Organization/3a4f3433bce81181bad2d8e0b8fafccf7dc800bc06f29be73dcb38b750a48f9a"
        }
      } ],
      "status": "final",
      "category": [ {
        "coding": [ {
          "system": "http://terminology.hl7.org/CodeSystem/observation-category",
          "code": "laboratory",
          "display": "Laboratory"
        }, {
          "system": "http://loinc.org",
          "code": "26436-6",
          "display": "Laboratory studies (set)"
        }, {
          "system": "http://loinc.org",
          "code": "18767-4",
          "display": "Blood gas studies (set)"
        } ]
      } ],
      "code": {
        "coding": [ {
          "system": "http://loinc.org",
          "code": "3150-0"
        }, {
          "system": "http://snomed.info/sct",
          "code": "250774007"
        } ],
        "text": "Oxygen [Partial pressure] in blood"
      },
      "subject": {
        "reference": "Patient/532026d52cef4c0269e87d90da8bad79b28431d5f520945a0f2d61017576fd8d"
      },
      "encounter": {
        "reference": "Encounter/328723566c2469ff310f2958443bf255f62ac0de6c8c9d7b2d32cdb03b816858"
      },
      "effectiveDateTime": "2020-10-31T10:25:00+00:00",
      "valueQuantity": {
        "value": 82.98310988014042,
        "unit": "%",
        "system": "http://unitsofmeasure.org",
        "code": "%"
      }
    },
    "request": {
      "method": "POST",
      "url": "Observation",
      "ifNoneExist": "identifier=https://mein.krankenhaus.de/fhir/NamingSystem/observationId|8db6eb7d2757b68b561d667ebb5676dbf20a7a468d38f047f53885ef398de6bd"
    }
  }, {
    "fullUrl": "Observation/2f658cadf2b38907375dbc4b12c62866329760c06cd483fb2ddbd589986b79c5",
    "resource": {
      "resourceType": "Observation",
      "meta": {
        "profile": [ "https://www.netzwerk-universitaetsmedizin.de/fhir/StructureDefinition/pH" ]
      },
      "identifier": [ {
        "type": {
          "coding": [ {
            "system": "http://terminology.hl7.org/CodeSystem/v2-0203",
            "code": "OBI",
            "display": "Observation Instance Identifier"
          } ]
        },
        "system": "https://mein.krankenhaus.de/fhir/NamingSystem/observationId",
        "value": "b75d80d3061809670b120255d3c78e4e55686c7e147c4fe2e4b39007dd02468d",
        "assigner": {
          "reference": "Organization/3a4f3433bce81181bad2d8e0b8fafccf7dc800bc06f29be73dcb38b750a48f9a"
        }
      } ],
      "status": "final",
      "category": [ {
        "coding": [ {
          "system": "http://terminology.hl7.org/CodeSystem/observation-category",
          "code": "laboratory",
          "display": "Laboratory"
        }, {
          "system": "http://loinc.org",
          "code": "26436-6",
          "display": "Laboratory studies (set)"
        }, {
          "system": "http://loinc.org",
          "code": "18767-4",
          "display": "Blood gas studies (set)"
        } ]
      } ],
      "code": {
        "coding": [ {
          "system": "http://loinc.org",
          "code": "11558-4"
        } ],
        "text": "pH of Blood"
      },
      "subject": {
        "reference": "Patient/532026d52cef4c0269e87d90da8bad79b28431d5f520945a0f2d61017576fd8d"
      },
      "encounter": {
        "reference": "Encounter/328723566c2469ff310f2958443bf255f62ac0de6c8c9d7b2d32cdb03b816858"
      },
      "effectiveDateTime": "2020-10-31T10:25:00+00:00",
      "valueQuantity": {
        "value": 12.32129574052071,
        "unit": "pH",
        "system": "http://unitsofmeasure.org",
        "code": "[pH]"
      }
    },
    "request": {
      "method": "POST",
      "url": "Observation",
      "ifNoneExist": "identifier=https://mein.krankenhaus.de/fhir/NamingSystem/observationId|2f658cadf2b38907375dbc4b12c62866329760c06cd483fb2ddbd589986b79c5"
    }
  }, {
    "fullUrl": "Observation/77db76811affeb20381e40c495da6250927b60a1483f524d9c57a423be9b0f72",
    "resource": {
      "resourceType": "Observation",
      "meta": {
        "profile": [ "https://www.netzwerk-universitaetsmedizin.de/fhir/StructureDefinition/sofa-score" ]
      },
      "identifier": [ {
        "type": {
          "coding": [ {
            "system": "http://terminology.hl7.org/CodeSystem/v2-0203",
            "code": "OBI",
            "display": "Observation Instance Identifier"
          } ]
        },
        "system": "https://mein.krankenhaus.de/fhir/NamingSystem/observationId",
        "value": "8baa190b5fc31ca0ce1d866385d5d044ff3788fd8065901c12999881011022ef",
        "assigner": {
          "reference": "Organization/3a4f3433bce81181bad2d8e0b8fafccf7dc800bc06f29be73dcb38b750a48f9a"
        }
      } ],
      "status": "final",
      "category": [ {
        "coding": [ {
          "system": "http://terminology.hl7.org/CodeSystem/observation-category",
          "code": "survey",
          "display": "Survey"
        } ]
      } ],
      "code": {
        "coding": [ {
          "system": "https://www.netzwerk-universitaetsmedizin.de/fhir/CodeSystem/ecrf-parameter-codes",
          "code": "06",
          "display": "SOFA-Score"
        } ],
        "text": "Sepsis-related organ failure assessment score"
      },
      "subject": {
        "reference": "Patient/532026d52cef4c0269e87d90da8bad79b28431d5f520945a0f2d61017576fd8d"
      },
      "encounter": {
        "reference": "Encounter/328723566c2469ff310f2958443bf255f62ac0de6c8c9d7b2d32cdb03b816858"
      },
      "effectiveDateTime": "2020-10-31T10:25:00+00:00",
      "valueInteger": 7,
      "component": [ {
        "code": {
          "coding": [ {
            "system": "https://www.netzwerk-universitaetsmedizin.de/fhir/CodeSystem/sofa-score",
            "code": "resp",
            "display": "Respiratory system"
          } ],
          "text": "SOFA Respiratory system scoring category"
        },
        "valueCodeableConcept": {
          "coding": [ {
            "system": "https://www.netzwerk-universitaetsmedizin.de/fhir/CodeSystem/sofa-score",
            "code": "resp0",
            "display": "Respiratory system SOFA score 0"
          } ],
          "text": "PaO2/FiO2 [mmHg (kPa)]  400 (53.3)"
        }
      }, {
        "code": {
          "coding": [ {
            "system": "https://www.netzwerk-universitaetsmedizin.de/fhir/CodeSystem/sofa-score",
            "code": "ns",
            "display": "Nervous system"
          } ],
          "text": "SOFA Nervous system scoring category"
        },
        "valueCodeableConcept": {
          "coding": [ {
            "system": "https://www.netzwerk-universitaetsmedizin.de/fhir/CodeSystem/sofa-score",
            "code": "ns1",
            "display": "Nervous system SOFA score 1"
          } ],
          "text": "Glasgow Coma Scale (GCS) 13-14"
        }
      }, {
        "code": {
          "coding": [ {
            "system": "https://www.netzwerk-universitaetsmedizin.de/fhir/CodeSystem/sofa-score",
            "code": "kid",
            "display": "Kidneys"
          } ],
          "text": "SOFA Kidneys scoring category"
        },
        "valueCodeableConcept": {
          "coding": [ {
            "system": "https://www.netzwerk-universitaetsmedizin.de/fhir/CodeSystem/sofa-score",
            "code": "kid3",
            "display": "Kidneys SOFA score 3"
          } ],
          "text": "Creatinine (mg/dl) [umol/L] (or urine output) 3.5-4.9 [300-440] (or < 500 ml/d)"
        }
      }, {
        "code": {
          "coding": [ {
            "system": "https://www.netzwerk-universitaetsmedizin.de/fhir/CodeSystem/sofa-score",
            "code": "cvs",
            "display": "Cardiovascular system"
          } ],
          "text": "SOFA Cardiovascular system scoring category"
        },
        "valueCodeableConcept": {
          "coding": [ {
            "system": "https://www.netzwerk-universitaetsmedizin.de/fhir/CodeSystem/sofa-score",
            "code": "cvs2",
            "display": "Cardiovascular system SOFA score 2"
          } ],
          "text": "Administration of dopamine  5 ug/kg/min or dobutamine (any dose)"
        }
      }, {
        "code": {
          "coding": [ {
            "system": "https://www.netzwerk-universitaetsmedizin.de/fhir/CodeSystem/sofa-score",
            "code": "liv",
            "display": "Liver"
          } ],
          "text": "SOFA Liver scoring category"
        },
        "valueCodeableConcept": {
          "coding": [ {
            "system": "https://www.netzwerk-universitaetsmedizin.de/fhir/CodeSystem/sofa-score",
            "code": "liv0",
            "display": "Liver SOFA score 0"
          } ],
          "text": "Bilirubin (mg/dl) [umol/L] < 1.2 [< 20]"
        }
      }, {
        "code": {
          "coding": [ {
            "system": "https://www.netzwerk-universitaetsmedizin.de/fhir/CodeSystem/sofa-score",
            "code": "coa",
            "display": "Coagulation"
          } ],
          "text": "SOFA Coagulation scoring category"
        },
        "valueCodeableConcept": {
          "coding": [ {
            "system": "https://www.netzwerk-universitaetsmedizin.de/fhir/CodeSystem/sofa-score",
            "code": "coa1",
            "display": "Coagulation SOFA score 1"
          } ],
          "text": "Platelets10^3/ul < 150"
        }
      } ]
    },
    "request": {
      "method": "POST",
      "url": "Observation",
      "ifNoneExist": "identifier=https://mein.krankenhaus.de/fhir/NamingSystem/observationId|77db76811affeb20381e40c495da6250927b60a1483f524d9c57a423be9b0f72"
    }
  }, {
    "fullUrl": "Observation/b0da6ca08ad31a8680314e2457c45eb79c61829a5c373c123e718050e73987e4",
    "resource": {
      "resourceType": "Observation",
      "meta": {
        "profile": [ "https://www.netzwerk-universitaetsmedizin.de/fhir/StructureDefinition/respiratory-rate" ]
      },
      "identifier": [ {
        "type": {
          "coding": [ {
            "system": "http://terminology.hl7.org/CodeSystem/v2-0203",
            "code": "OBI",
            "display": "Observation Instance Identifier"
          } ]
        },
        "system": "https://mein.krankenhaus.de/fhir/NamingSystem/observationId",
        "value": "ebab289053dfb621627975300c632035590b84f4cb8ac7a661f9f6a4adec4488",
        "assigner": {
          "reference": "Organization/3a4f3433bce81181bad2d8e0b8fafccf7dc800bc06f29be73dcb38b750a48f9a"
        }
      } ],
      "status": "final",
      "category": [ {
        "coding": [ {
          "system": "http://terminology.hl7.org/CodeSystem/observation-category",
          "code": "vital-signs",
          "display": "Vital Signs"
        } ]
      } ],
      "code": {
        "coding": [ {
          "system": "http://loinc.org",
          "code": "9279-1"
        }, {
          "system": "http://snomed.info/sct",
          "code": "86290005"
        } ],
        "text": "Respiratory rate"
      },
      "subject": {
        "reference": "Patient/532026d52cef4c0269e87d90da8bad79b28431d5f520945a0f2d61017576fd8d"
      },
      "encounter": {
        "reference": "Encounter/328723566c2469ff310f2958443bf255f62ac0de6c8c9d7b2d32cdb03b816858"
      },
      "effectiveDateTime": "2020-10-31T10:25:00+00:00",
      "valueQuantity": {
        "value": 10,
        "unit": "per minute",
        "system": "http://unitsofmeasure.org",
        "code": "/min"
      }
    },
    "request": {
      "method": "POST",
      "url": "Observation",
      "ifNoneExist": "identifier=https://mein.krankenhaus.de/fhir/NamingSystem/observationId|b0da6ca08ad31a8680314e2457c45eb79c61829a5c373c123e718050e73987e4"
    }
  }, {
    "fullUrl": "Observation/b47fe59cb83ede4c936547a33a120bb4df506085c8661a31a033d8be8a46f903",
    "resource": {
      "resourceType": "Observation",
      "meta": {
        "profile": [ "https://www.netzwerk-universitaetsmedizin.de/fhir/StructureDefinition/blood-pressure" ]
      },
      "identifier": [ {
        "type": {
          "coding": [ {
            "system": "http://terminology.hl7.org/CodeSystem/v2-0203",
            "code": "OBI",
            "display": "Observation Instance Identifier"
          } ]
        },
        "system": "https://mein.krankenhaus.de/fhir/NamingSystem/observationId",
        "value": "1cfab251e86cbe04e4dfeabb30829f3b9ee407fcc2aaaf7e2012c64203b5932a",
        "assigner": {
          "reference": "Organization/3a4f3433bce81181bad2d8e0b8fafccf7dc800bc06f29be73dcb38b750a48f9a"
        }
      } ],
      "status": "final",
      "category": [ {
        "coding": [ {
          "system": "http://terminology.hl7.org/CodeSystem/observation-category",
          "code": "vital-signs",
          "display": "Vital Signs"
        } ]
      } ],
      "code": {
        "coding": [ {
          "system": "http://loinc.org",
          "code": "85354-9",
          "display": "Blood pressure panel with all children optional"
        }, {
          "system": "http://snomed.info/sct",
          "code": "75367002",
          "display": "Blood pressure (observable entity)"
        } ],
        "text": "Blood pressure"
      },
      "subject": {
        "reference": "Patient/532026d52cef4c0269e87d90da8bad79b28431d5f520945a0f2d61017576fd8d"
      },
      "encounter": {
        "reference": "Encounter/328723566c2469ff310f2958443bf255f62ac0de6c8c9d7b2d32cdb03b816858"
      },
      "effectiveDateTime": "2020-10-31T10:25:00+00:00",
      "component": [ {
        "code": {
          "coding": [ {
            "system": "http://loinc.org",
            "code": "8480-6"
          }, {
            "system": "http://snomed.info/sct",
            "code": "271649006"
          } ],
          "text": "Systolic blood pressure"
        },
        "valueQuantity": {
          "value": 220,
          "unit": "mmHg",
          "system": "http://unitsofmeasure.org",
          "code": "mm[Hg]"
        }
      }, {
        "code": {
          "coding": [ {
            "system": "http://loinc.org",
            "code": "8462-4"
          }, {
            "system": "http://snomed.info/sct",
            "code": "271650006"
          } ],
          "text": "Diastolic blood pressure"
        },
        "valueQuantity": {
          "value": 29,
          "unit": "mmHg",
          "system": "http://unitsofmeasure.org",
          "code": "mm[Hg]"
        }
      } ]
    },
    "request": {
      "method": "POST",
      "url": "Observation",
      "ifNoneExist": "identifier=https://mein.krankenhaus.de/fhir/NamingSystem/observationId|b47fe59cb83ede4c936547a33a120bb4df506085c8661a31a033d8be8a46f903"
    }
  }, {
    "fullUrl": "Observation/d8447da61617a120749e43df46bded98b7ef0626c830caa7d0b9766ec3db73c4",
    "resource": {
      "resourceType": "Observation",
      "meta": {
        "profile": [ "https://www.netzwerk-universitaetsmedizin.de/fhir/StructureDefinition/body-temperature" ]
      },
      "identifier": [ {
        "type": {
          "coding": [ {
            "system": "http://terminology.hl7.org/CodeSystem/v2-0203",
            "code": "OBI",
            "display": "Observation Instance Identifier"
          } ]
        },
        "system": "https://mein.krankenhaus.de/fhir/NamingSystem/observationId",
        "value": "0240f8ff442dc6acf47cd7b11eeac0af8fea091fa54f24dfb7f3e2b351241b82",
        "assigner": {
          "reference": "Organization/3a4f3433bce81181bad2d8e0b8fafccf7dc800bc06f29be73dcb38b750a48f9a"
        }
      } ],
      "status": "final",
      "category": [ {
        "coding": [ {
          "system": "http://terminology.hl7.org/CodeSystem/observation-category",
          "code": "vital-signs",
          "display": "Vital Signs"
        } ]
      } ],
      "code": {
        "coding": [ {
          "system": "http://loinc.org",
          "code": "8310-5"
        }, {
          "system": "http://snomed.info/sct",
          "code": "386725007"
        } ],
        "text": "Body temperature"
      },
      "subject": {
        "reference": "Patient/532026d52cef4c0269e87d90da8bad79b28431d5f520945a0f2d61017576fd8d"
      },
      "encounter": {
        "reference": "Encounter/328723566c2469ff310f2958443bf255f62ac0de6c8c9d7b2d32cdb03b816858"
      },
      "effectiveDateTime": "2020-10-31T10:25:00+00:00",
      "valueQuantity": {
        "value": 38.93275691462737,
        "unit": "C",
        "system": "http://unitsofmeasure.org",
        "code": "Cel"
      }
    },
    "request": {
      "method": "POST",
      "url": "Observation",
      "ifNoneExist": "identifier=https://mein.krankenhaus.de/fhir/NamingSystem/observationId|d8447da61617a120749e43df46bded98b7ef0626c830caa7d0b9766ec3db73c4"
    }
  }, {
    "fullUrl": "Observation/ed0c0a90517f6a40f01ceef9d21f2c07ba805e7b9a3c3317121e8e8fac395191",
    "resource": {
      "resourceType": "Observation",
      "meta": {
        "profile": [ "https://www.netzwerk-universitaetsmedizin.de/fhir/StructureDefinition/oxygen-saturation" ]
      },
      "identifier": [ {
        "type": {
          "coding": [ {
            "system": "http://terminology.hl7.org/CodeSystem/v2-0203",
            "code": "OBI",
            "display": "Observation Instance Identifier"
          } ]
        },
        "system": "https://mein.krankenhaus.de/fhir/NamingSystem/observationId",
        "value": "b0c49b69a89673bb533301547cbea854dcd28e49fd67649d65e81a67142e0909",
        "assigner": {
          "reference": "Organization/3a4f3433bce81181bad2d8e0b8fafccf7dc800bc06f29be73dcb38b750a48f9a"
        }
      } ],
      "status": "final",
      "category": [ {
        "coding": [ {
          "system": "http://terminology.hl7.org/CodeSystem/observation-category",
          "code": "vital-signs",
          "display": "Vital Signs"
        } ]
      } ],
      "code": {
        "coding": [ {
          "system": "http://loinc.org",
          "code": "2708-6"
        }, {
          "system": "http://loinc.org",
          "code": "59408-5"
        }, {
          "system": "http://loinc.org",
          "code": "20564-1"
        }, {
          "system": "http://snomed.info/sct",
          "code": "431314004"
        } ],
        "text": "Oxygen saturation in Arterial blood"
      },
      "subject": {
        "reference": "Patient/532026d52cef4c0269e87d90da8bad79b28431d5f520945a0f2d61017576fd8d"
      },
      "encounter": {
        "reference": "Encounter/328723566c2469ff310f2958443bf255f62ac0de6c8c9d7b2d32cdb03b816858"
      },
      "effectiveDateTime": "2020-10-31T10:25:00+00:00",
      "valueQuantity": {
        "value": 35,
        "unit": "%",
        "system": "http://unitsofmeasure.org",
        "code": "%"
      }
    },
    "request": {
      "method": "POST",
      "url": "Observation",
      "ifNoneExist": "identifier=https://mein.krankenhaus.de/fhir/NamingSystem/observationId|ed0c0a90517f6a40f01ceef9d21f2c07ba805e7b9a3c3317121e8e8fac395191"
    }
  }, {
    "fullUrl": "Observation/0868a9d99576f5d4e27a68160413642bf992699d2bc92d6690df9cc08583e5a4",
    "resource": {
      "resourceType": "Observation",
      "meta": {
        "profile": [ "https://www.netzwerk-universitaetsmedizin.de/fhir/StructureDefinition/carbon-dioxide-partial-pressure" ]
      },
      "identifier": [ {
        "type": {
          "coding": [ {
            "system": "http://terminology.hl7.org/CodeSystem/v2-0203",
            "code": "OBI",
            "display": "Observation Instance Identifier"
          } ]
        },
        "system": "https://mein.krankenhaus.de/fhir/NamingSystem/observationId",
        "value": "1d7d98d9c61d20dca4d099e868888838cfa7617a6d8b53f6db42791f4b3effe7",
        "assigner": {
          "reference": "Organization/3a4f3433bce81181bad2d8e0b8fafccf7dc800bc06f29be73dcb38b750a48f9a"
        }
      } ],
      "status": "final",
      "category": [ {
        "coding": [ {
          "system": "http://terminology.hl7.org/CodeSystem/observation-category",
          "code": "laboratory",
          "display": "Laboratory"
        }, {
          "system": "http://loinc.org",
          "code": "26436-6",
          "display": "Laboratory studies (set)"
        }, {
          "system": "http://loinc.org",
          "code": "18767-4",
          "display": "Blood gas studies (set)"
        } ]
      } ],
      "code": {
        "coding": [ {
          "system": "http://loinc.org",
          "code": "11557-6"
        } ],
        "text": "Carbon dioxide [Partial pressure] in blood"
      },
      "subject": {
        "reference": "Patient/532026d52cef4c0269e87d90da8bad79b28431d5f520945a0f2d61017576fd8d"
      },
      "encounter": {
        "reference": "Encounter/328723566c2469ff310f2958443bf255f62ac0de6c8c9d7b2d32cdb03b816858"
      },
      "effectiveDateTime": "2020-04-08T20:03:00+00:00",
      "valueQuantity": {
        "value": 191,
        "unit": "mmHg",
        "system": "http://unitsofmeasure.org",
        "code": "mm[Hg]"
      }
    },
    "request": {
      "method": "POST",
      "url": "Observation",
      "ifNoneExist": "identifier=https://mein.krankenhaus.de/fhir/NamingSystem/observationId|0868a9d99576f5d4e27a68160413642bf992699d2bc92d6690df9cc08583e5a4"
    }
  }, {
    "fullUrl": "Observation/5af983c24727cc44ebc5e9cc7fad2a957e2dadf1c5a645b0352f4a2af9e4a442",
    "resource": {
      "resourceType": "Observation",
      "meta": {
        "profile": [ "https://www.netzwerk-universitaetsmedizin.de/fhir/StructureDefinition/oxygen-partial-pressure" ]
      },
      "identifier": [ {
        "type": {
          "coding": [ {
            "system": "http://terminology.hl7.org/CodeSystem/v2-0203",
            "code": "OBI",
            "display": "Observation Instance Identifier"
          } ]
        },
        "system": "https://mein.krankenhaus.de/fhir/NamingSystem/observationId",
        "value": "278f42bcde0f433e7dda7f0196ac0f88c245b2343a1e7b6fd0df4bddc4850482",
        "assigner": {
          "reference": "Organization/3a4f3433bce81181bad2d8e0b8fafccf7dc800bc06f29be73dcb38b750a48f9a"
        }
      } ],
      "status": "final",
      "category": [ {
        "coding": [ {
          "system": "http://terminology.hl7.org/CodeSystem/observation-category",
          "code": "laboratory",
          "display": "Laboratory"
        }, {
          "system": "http://loinc.org",
          "code": "26436-6",
          "display": "Laboratory studies (set)"
        }, {
          "system": "http://loinc.org",
          "code": "18767-4",
          "display": "Blood gas studies (set)"
        } ]
      } ],
      "code": {
        "coding": [ {
          "system": "http://loinc.org",
          "code": "11557-8"
        } ],
        "text": "Oxygen [Partial pressure] in blood"
      },
      "subject": {
        "reference": "Patient/532026d52cef4c0269e87d90da8bad79b28431d5f520945a0f2d61017576fd8d"
      },
      "encounter": {
        "reference": "Encounter/328723566c2469ff310f2958443bf255f62ac0de6c8c9d7b2d32cdb03b816858"
      },
      "effectiveDateTime": "2020-04-08T20:03:00+00:00",
      "valueQuantity": {
        "value": 72,
        "unit": "mmHg",
        "system": "http://unitsofmeasure.org",
        "code": "mm[Hg]"
      }
    },
    "request": {
      "method": "POST",
      "url": "Observation",
      "ifNoneExist": "identifier=https://mein.krankenhaus.de/fhir/NamingSystem/observationId|5af983c24727cc44ebc5e9cc7fad2a957e2dadf1c5a645b0352f4a2af9e4a442"
    }
  }, {
    "fullUrl": "Observation/dec5245ce87921a09c766fdbb93a6978c99a0c1f7dc2cd7819c8d5782d1ff2d6",
    "resource": {
      "resourceType": "Observation",
      "meta": {
        "profile": [ "https://www.netzwerk-universitaetsmedizin.de/fhir/StructureDefinition/inhaled-oxygen-concentration" ]
      },
      "identifier": [ {
        "type": {
          "coding": [ {
            "system": "http://terminology.hl7.org/CodeSystem/v2-0203",
            "code": "OBI",
            "display": "Observation Instance Identifier"
          } ]
        },
        "system": "https://mein.krankenhaus.de/fhir/NamingSystem/observationId",
        "value": "c5ee0b3acf00a5ca1fd8715994eb6242ac7be1bb05659fb3084fea7fd2c4b317",
        "assigner": {
          "reference": "Organization/3a4f3433bce81181bad2d8e0b8fafccf7dc800bc06f29be73dcb38b750a48f9a"
        }
      } ],
      "status": "final",
      "category": [ {
        "coding": [ {
          "system": "http://terminology.hl7.org/CodeSystem/observation-category",
          "code": "laboratory",
          "display": "Laboratory"
        }, {
          "system": "http://loinc.org",
          "code": "26436-6",
          "display": "Laboratory studies (set)"
        }, {
          "system": "http://loinc.org",
          "code": "18767-4",
          "display": "Blood gas studies (set)"
        } ]
      } ],
      "code": {
        "coding": [ {
          "system": "http://loinc.org",
          "code": "3150-0"
        }, {
          "system": "http://snomed.info/sct",
          "code": "250774007"
        } ],
        "text": "Oxygen [Partial pressure] in blood"
      },
      "subject": {
        "reference": "Patient/532026d52cef4c0269e87d90da8bad79b28431d5f520945a0f2d61017576fd8d"
      },
      "encounter": {
        "reference": "Encounter/328723566c2469ff310f2958443bf255f62ac0de6c8c9d7b2d32cdb03b816858"
      },
      "effectiveDateTime": "2020-04-08T20:03:00+00:00",
      "valueQuantity": {
        "value": 26.422185391204046,
        "unit": "%",
        "system": "http://unitsofmeasure.org",
        "code": "%"
      }
    },
    "request": {
      "method": "POST",
      "url": "Observation",
      "ifNoneExist": "identifier=https://mein.krankenhaus.de/fhir/NamingSystem/observationId|dec5245ce87921a09c766fdbb93a6978c99a0c1f7dc2cd7819c8d5782d1ff2d6"
    }
  }, {
    "fullUrl": "Observation/3224086b1a37c5b9e3553ed49b5cbb84c2d83786e114eedd1ed2f7c30117d777",
    "resource": {
      "resourceType": "Observation",
      "meta": {
        "profile": [ "https://www.netzwerk-universitaetsmedizin.de/fhir/StructureDefinition/pH" ]
      },
      "identifier": [ {
        "type": {
          "coding": [ {
            "system": "http://terminology.hl7.org/CodeSystem/v2-0203",
            "code": "OBI",
            "display": "Observation Instance Identifier"
          } ]
        },
        "system": "https://mein.krankenhaus.de/fhir/NamingSystem/observationId",
        "value": "ce323a5200a60abe692ae624f67ab0ee75ee5033b923509e227ff427d61dad9d",
        "assigner": {
          "reference": "Organization/3a4f3433bce81181bad2d8e0b8fafccf7dc800bc06f29be73dcb38b750a48f9a"
        }
      } ],
      "status": "final",
      "category": [ {
        "coding": [ {
          "system": "http://terminology.hl7.org/CodeSystem/observation-category",
          "code": "laboratory",
          "display": "Laboratory"
        }, {
          "system": "http://loinc.org",
          "code": "26436-6",
          "display": "Laboratory studies (set)"
        }, {
          "system": "http://loinc.org",
          "code": "18767-4",
          "display": "Blood gas studies (set)"
        } ]
      } ],
      "code": {
        "coding": [ {
          "system": "http://loinc.org",
          "code": "11558-4"
        } ],
        "text": "pH of Blood"
      },
      "subject": {
        "reference": "Patient/532026d52cef4c0269e87d90da8bad79b28431d5f520945a0f2d61017576fd8d"
      },
      "encounter": {
        "reference": "Encounter/328723566c2469ff310f2958443bf255f62ac0de6c8c9d7b2d32cdb03b816858"
      },
      "effectiveDateTime": "2020-04-08T20:03:00+00:00",
      "valueQuantity": {
        "value": 7.3180965297669776,
        "unit": "pH",
        "system": "http://unitsofmeasure.org",
        "code": "[pH]"
      }
    },
    "request": {
      "method": "POST",
      "url": "Observation",
      "ifNoneExist": "identifier=https://mein.krankenhaus.de/fhir/NamingSystem/observationId|3224086b1a37c5b9e3553ed49b5cbb84c2d83786e114eedd1ed2f7c30117d777"
    }
  }, {
    "fullUrl": "Observation/d5a8f28a2d008dae87e1f5d10e0b525685f8bb137714e22daeb2a3377b84eec7",
    "resource": {
      "resourceType": "Observation",
      "meta": {
        "profile": [ "https://www.netzwerk-universitaetsmedizin.de/fhir/StructureDefinition/sofa-score" ]
      },
      "identifier": [ {
        "type": {
          "coding": [ {
            "system": "http://terminology.hl7.org/CodeSystem/v2-0203",
            "code": "OBI",
            "display": "Observation Instance Identifier"
          } ]
        },
        "system": "https://mein.krankenhaus.de/fhir/NamingSystem/observationId",
        "value": "b852907c3dbea32ec4661b1541fc66e1b5f6ecc75bba97cdd1e9bfccb5e1c318",
        "assigner": {
          "reference": "Organization/3a4f3433bce81181bad2d8e0b8fafccf7dc800bc06f29be73dcb38b750a48f9a"
        }
      } ],
      "status": "final",
      "category": [ {
        "coding": [ {
          "system": "http://terminology.hl7.org/CodeSystem/observation-category",
          "code": "survey",
          "display": "Survey"
        } ]
      } ],
      "code": {
        "coding": [ {
          "system": "https://www.netzwerk-universitaetsmedizin.de/fhir/CodeSystem/ecrf-parameter-codes",
          "code": "06",
          "display": "SOFA-Score"
        } ],
        "text": "Sepsis-related organ failure assessment score"
      },
      "subject": {
        "reference": "Patient/532026d52cef4c0269e87d90da8bad79b28431d5f520945a0f2d61017576fd8d"
      },
      "encounter": {
        "reference": "Encounter/328723566c2469ff310f2958443bf255f62ac0de6c8c9d7b2d32cdb03b816858"
      },
      "effectiveDateTime": "2020-04-08T20:03:00+00:00",
      "valueInteger": 15,
      "component": [ {
        "code": {
          "coding": [ {
            "system": "https://www.netzwerk-universitaetsmedizin.de/fhir/CodeSystem/sofa-score",
            "code": "resp",
            "display": "Respiratory system"
          } ],
          "text": "SOFA Respiratory system scoring category"
        },
        "valueCodeableConcept": {
          "coding": [ {
            "system": "https://www.netzwerk-universitaetsmedizin.de/fhir/CodeSystem/sofa-score",
            "code": "resp1",
            "display": "Respiratory system SOFA score 1"
          } ],
          "text": "PaO2/FiO2 [mmHg (kPa)] < 400 (53.3)"
        }
      }, {
        "code": {
          "coding": [ {
            "system": "https://www.netzwerk-universitaetsmedizin.de/fhir/CodeSystem/sofa-score",
            "code": "ns",
            "display": "Nervous system"
          } ],
          "text": "SOFA Nervous system scoring category"
        },
        "valueCodeableConcept": {
          "coding": [ {
            "system": "https://www.netzwerk-universitaetsmedizin.de/fhir/CodeSystem/sofa-score",
            "code": "ns4",
            "display": "Nervous system SOFA score 4"
          } ],
          "text": "Glasgow Coma Scale (GCS) < 6"
        }
      }, {
        "code": {
          "coding": [ {
            "system": "https://www.netzwerk-universitaetsmedizin.de/fhir/CodeSystem/sofa-score",
            "code": "kid",
            "display": "Kidneys"
          } ],
          "text": "SOFA Kidneys scoring category"
        },
        "valueCodeableConcept": {
          "coding": [ {
            "system": "https://www.netzwerk-universitaetsmedizin.de/fhir/CodeSystem/sofa-score",
            "code": "kid4",
            "display": "Kidneys SOFA score 4"
          } ],
          "text": "Creatinine (mg/dl) [umol/L] (or urine output) > 5.0 [> 440] (or < 200 ml/d)"
        }
      }, {
        "code": {
          "coding": [ {
            "system": "https://www.netzwerk-universitaetsmedizin.de/fhir/CodeSystem/sofa-score",
            "code": "cvs",
            "display": "Cardiovascular system"
          } ],
          "text": "SOFA Cardiovascular system scoring category"
        },
        "valueCodeableConcept": {
          "coding": [ {
            "system": "https://www.netzwerk-universitaetsmedizin.de/fhir/CodeSystem/sofa-score",
            "code": "cvs4",
            "display": "Cardiovascular system SOFA score 4"
          } ],
          "text": "Administration of dopamine > 15 ug/kg/min OR epinephrine > 0.1 ug/kg/min OR norepinephrine > 0.1 ug/kg/min"
        }
      }, {
        "code": {
          "coding": [ {
            "system": "https://www.netzwerk-universitaetsmedizin.de/fhir/CodeSystem/sofa-score",
            "code": "liv",
            "display": "Liver"
          } ],
          "text": "SOFA Liver scoring category"
        },
        "valueCodeableConcept": {
          "coding": [ {
            "system": "https://www.netzwerk-universitaetsmedizin.de/fhir/CodeSystem/sofa-score",
            "code": "liv0",
            "display": "Liver SOFA score 0"
          } ],
          "text": "Bilirubin (mg/dl) [umol/L] < 1.2 [< 20]"
        }
      }, {
        "code": {
          "coding": [ {
            "system": "https://www.netzwerk-universitaetsmedizin.de/fhir/CodeSystem/sofa-score",
            "code": "coa",
            "display": "Coagulation"
          } ],
          "text": "SOFA Coagulation scoring category"
        },
        "valueCodeableConcept": {
          "coding": [ {
            "system": "https://www.netzwerk-universitaetsmedizin.de/fhir/CodeSystem/sofa-score",
            "code": "coa2",
            "display": "Coagulation SOFA score 2"
          } ],
          "text": "Platelets10^3/ul < 100"
        }
      } ]
    },
    "request": {
      "method": "POST",
      "url": "Observation",
      "ifNoneExist": "identifier=https://mein.krankenhaus.de/fhir/NamingSystem/observationId|d5a8f28a2d008dae87e1f5d10e0b525685f8bb137714e22daeb2a3377b84eec7"
    }
  }, {
    "fullUrl": "Observation/e7e8bc19ab297dd93ea99208b62b35326a14992d90f37fc134e1bfcfcae19c77",
    "resource": {
      "resourceType": "Observation",
      "meta": {
        "profile": [ "https://www.netzwerk-universitaetsmedizin.de/fhir/StructureDefinition/respiratory-rate" ]
      },
      "identifier": [ {
        "type": {
          "coding": [ {
            "system": "http://terminology.hl7.org/CodeSystem/v2-0203",
            "code": "OBI",
            "display": "Observation Instance Identifier"
          } ]
        },
        "system": "https://mein.krankenhaus.de/fhir/NamingSystem/observationId",
        "value": "49f2befad91cf6216c3d4f029568420589dd1e18d4bc574654e63ac11d7805df",
        "assigner": {
          "reference": "Organization/3a4f3433bce81181bad2d8e0b8fafccf7dc800bc06f29be73dcb38b750a48f9a"
        }
      } ],
      "status": "final",
      "category": [ {
        "coding": [ {
          "system": "http://terminology.hl7.org/CodeSystem/observation-category",
          "code": "vital-signs",
          "display": "Vital Signs"
        } ]
      } ],
      "code": {
        "coding": [ {
          "system": "http://loinc.org",
          "code": "9279-1"
        }, {
          "system": "http://snomed.info/sct",
          "code": "86290005"
        } ],
        "text": "Respiratory rate"
      },
      "subject": {
        "reference": "Patient/532026d52cef4c0269e87d90da8bad79b28431d5f520945a0f2d61017576fd8d"
      },
      "encounter": {
        "reference": "Encounter/328723566c2469ff310f2958443bf255f62ac0de6c8c9d7b2d32cdb03b816858"
      },
      "effectiveDateTime": "2020-04-08T20:03:00+00:00",
      "valueQuantity": {
        "value": 62,
        "unit": "per minute",
        "system": "http://unitsofmeasure.org",
        "code": "/min"
      }
    },
    "request": {
      "method": "POST",
      "url": "Observation",
      "ifNoneExist": "identifier=https://mein.krankenhaus.de/fhir/NamingSystem/observationId|e7e8bc19ab297dd93ea99208b62b35326a14992d90f37fc134e1bfcfcae19c77"
    }
  }, {
    "fullUrl": "Observation/6d36de236df6071ea0f086de86537595fd652dbc66b70bcd9cd7ca08cff20be0",
    "resource": {
      "resourceType": "Observation",
      "meta": {
        "profile": [ "https://www.netzwerk-universitaetsmedizin.de/fhir/StructureDefinition/blood-pressure" ]
      },
      "identifier": [ {
        "type": {
          "coding": [ {
            "system": "http://terminology.hl7.org/CodeSystem/v2-0203",
            "code": "OBI",
            "display": "Observation Instance Identifier"
          } ]
        },
        "system": "https://mein.krankenhaus.de/fhir/NamingSystem/observationId",
        "value": "e0d3b2a9aebe68720cc554df6c524dd512d42d6991d1b7ce6e1659b9bb750a50",
        "assigner": {
          "reference": "Organization/3a4f3433bce81181bad2d8e0b8fafccf7dc800bc06f29be73dcb38b750a48f9a"
        }
      } ],
      "status": "final",
      "category": [ {
        "coding": [ {
          "system": "http://terminology.hl7.org/CodeSystem/observation-category",
          "code": "vital-signs",
          "display": "Vital Signs"
        } ]
      } ],
      "code": {
        "coding": [ {
          "system": "http://loinc.org",
          "code": "85354-9",
          "display": "Blood pressure panel with all children optional"
        }, {
          "system": "http://snomed.info/sct",
          "code": "75367002",
          "display": "Blood pressure (observable entity)"
        } ],
        "text": "Blood pressure"
      },
      "subject": {
        "reference": "Patient/532026d52cef4c0269e87d90da8bad79b28431d5f520945a0f2d61017576fd8d"
      },
      "encounter": {
        "reference": "Encounter/328723566c2469ff310f2958443bf255f62ac0de6c8c9d7b2d32cdb03b816858"
      },
      "effectiveDateTime": "2020-04-08T20:03:00+00:00",
      "component": [ {
        "code": {
          "coding": [ {
            "system": "http://loinc.org",
            "code": "8480-6"
          }, {
            "system": "http://snomed.info/sct",
            "code": "271649006"
          } ],
          "text": "Systolic blood pressure"
        },
        "valueQuantity": {
          "value": 180,
          "unit": "mmHg",
          "system": "http://unitsofmeasure.org",
          "code": "mm[Hg]"
        }
      }, {
        "code": {
          "coding": [ {
            "system": "http://loinc.org",
            "code": "8462-4"
          }, {
            "system": "http://snomed.info/sct",
            "code": "271650006"
          } ],
          "text": "Diastolic blood pressure"
        },
        "valueQuantity": {
          "value": 73,
          "unit": "mmHg",
          "system": "http://unitsofmeasure.org",
          "code": "mm[Hg]"
        }
      } ]
    },
    "request": {
      "method": "POST",
      "url": "Observation",
      "ifNoneExist": "identifier=https://mein.krankenhaus.de/fhir/NamingSystem/observationId|6d36de236df6071ea0f086de86537595fd652dbc66b70bcd9cd7ca08cff20be0"
    }
  }, {
    "fullUrl": "Observation/c1640d40d497202955a1350ed64f6e56f94ea44054c9b052e99edce1f8481f8b",
    "resource": {
      "resourceType": "Observation",
      "meta": {
        "profile": [ "https://www.netzwerk-universitaetsmedizin.de/fhir/StructureDefinition/body-temperature" ]
      },
      "identifier": [ {
        "type": {
          "coding": [ {
            "system": "http://terminology.hl7.org/CodeSystem/v2-0203",
            "code": "OBI",
            "display": "Observation Instance Identifier"
          } ]
        },
        "system": "https://mein.krankenhaus.de/fhir/NamingSystem/observationId",
        "value": "02ec17a60671530a2225394eca9a5abad649482edcf668ab99048a0ac0e12eb4",
        "assigner": {
          "reference": "Organization/3a4f3433bce81181bad2d8e0b8fafccf7dc800bc06f29be73dcb38b750a48f9a"
        }
      } ],
      "status": "final",
      "category": [ {
        "coding": [ {
          "system": "http://terminology.hl7.org/CodeSystem/observation-category",
          "code": "vital-signs",
          "display": "Vital Signs"
        } ]
      } ],
      "code": {
        "coding": [ {
          "system": "http://loinc.org",
          "code": "8310-5"
        }, {
          "system": "http://snomed.info/sct",
          "code": "386725007"
        } ],
        "text": "Body temperature"
      },
      "subject": {
        "reference": "Patient/532026d52cef4c0269e87d90da8bad79b28431d5f520945a0f2d61017576fd8d"
      },
      "encounter": {
        "reference": "Encounter/328723566c2469ff310f2958443bf255f62ac0de6c8c9d7b2d32cdb03b816858"
      },
      "effectiveDateTime": "2020-04-08T20:03:00+00:00",
      "valueQuantity": {
        "value": 40.97459581336369,
        "unit": "C",
        "system": "http://unitsofmeasure.org",
        "code": "Cel"
      }
    },
    "request": {
      "method": "POST",
      "url": "Observation",
      "ifNoneExist": "identifier=https://mein.krankenhaus.de/fhir/NamingSystem/observationId|c1640d40d497202955a1350ed64f6e56f94ea44054c9b052e99edce1f8481f8b"
    }
  }, {
    "fullUrl": "Observation/fd0ce7108f8974263eee47521cdb7495734f9e5158ea043f2875d1066194c99b",
    "resource": {
      "resourceType": "Observation",
      "meta": {
        "profile": [ "https://www.netzwerk-universitaetsmedizin.de/fhir/StructureDefinition/oxygen-saturation" ]
      },
      "identifier": [ {
        "type": {
          "coding": [ {
            "system": "http://terminology.hl7.org/CodeSystem/v2-0203",
            "code": "OBI",
            "display": "Observation Instance Identifier"
          } ]
        },
        "system": "https://mein.krankenhaus.de/fhir/NamingSystem/observationId",
        "value": "17a9223ed7aac52757816f8014913be5628814a71ed976ac38009fe5fa199ad0",
        "assigner": {
          "reference": "Organization/3a4f3433bce81181bad2d8e0b8fafccf7dc800bc06f29be73dcb38b750a48f9a"
        }
      } ],
      "status": "final",
      "category": [ {
        "coding": [ {
          "system": "http://terminology.hl7.org/CodeSystem/observation-category",
          "code": "vital-signs",
          "display": "Vital Signs"
        } ]
      } ],
      "code": {
        "coding": [ {
          "system": "http://loinc.org",
          "code": "2708-6"
        }, {
          "system": "http://loinc.org",
          "code": "59408-5"
        }, {
          "system": "http://loinc.org",
          "code": "20564-1"
        }, {
          "system": "http://snomed.info/sct",
          "code": "431314004"
        } ],
        "text": "Oxygen saturation in Arterial blood"
      },
      "subject": {
        "reference": "Patient/532026d52cef4c0269e87d90da8bad79b28431d5f520945a0f2d61017576fd8d"
      },
      "encounter": {
        "reference": "Encounter/328723566c2469ff310f2958443bf255f62ac0de6c8c9d7b2d32cdb03b816858"
      },
      "effectiveDateTime": "2020-04-08T20:03:00+00:00",
      "valueQuantity": {
        "value": 45,
        "unit": "%",
        "system": "http://unitsofmeasure.org",
        "code": "%"
      }
    },
    "request": {
      "method": "POST",
      "url": "Observation",
      "ifNoneExist": "identifier=https://mein.krankenhaus.de/fhir/NamingSystem/observationId|fd0ce7108f8974263eee47521cdb7495734f9e5158ea043f2875d1066194c99b"
    }
  }, {
    "fullUrl": "Observation/7f97fc7e872b3d4365c47768bfa0944aee495e763fa4217c00bc50e2a44314c4",
    "resource": {
      "resourceType": "Observation",
      "meta": {
        "profile": [ "https://www.netzwerk-universitaetsmedizin.de/fhir/StructureDefinition/carbon-dioxide-partial-pressure" ]
      },
      "identifier": [ {
        "type": {
          "coding": [ {
            "system": "http://terminology.hl7.org/CodeSystem/v2-0203",
            "code": "OBI",
            "display": "Observation Instance Identifier"
          } ]
        },
        "system": "https://mein.krankenhaus.de/fhir/NamingSystem/observationId",
        "value": "447f7bd0ed3af1d35e420da6be400028d0091809ada739973e912478f4211f1f",
        "assigner": {
          "reference": "Organization/3a4f3433bce81181bad2d8e0b8fafccf7dc800bc06f29be73dcb38b750a48f9a"
        }
      } ],
      "status": "final",
      "category": [ {
        "coding": [ {
          "system": "http://terminology.hl7.org/CodeSystem/observation-category",
          "code": "laboratory",
          "display": "Laboratory"
        }, {
          "system": "http://loinc.org",
          "code": "26436-6",
          "display": "Laboratory studies (set)"
        }, {
          "system": "http://loinc.org",
          "code": "18767-4",
          "display": "Blood gas studies (set)"
        } ]
      } ],
      "code": {
        "coding": [ {
          "system": "http://loinc.org",
          "code": "11557-6"
        } ],
        "text": "Carbon dioxide [Partial pressure] in blood"
      },
      "subject": {
        "reference": "Patient/532026d52cef4c0269e87d90da8bad79b28431d5f520945a0f2d61017576fd8d"
      },
      "encounter": {
        "reference": "Encounter/328723566c2469ff310f2958443bf255f62ac0de6c8c9d7b2d32cdb03b816858"
      },
      "effectiveDateTime": "2020-02-14T18:04:00+00:00",
      "valueQuantity": {
        "value": 156,
        "unit": "mmHg",
        "system": "http://unitsofmeasure.org",
        "code": "mm[Hg]"
      }
    },
    "request": {
      "method": "POST",
      "url": "Observation",
      "ifNoneExist": "identifier=https://mein.krankenhaus.de/fhir/NamingSystem/observationId|7f97fc7e872b3d4365c47768bfa0944aee495e763fa4217c00bc50e2a44314c4"
    }
  }, {
    "fullUrl": "Observation/9d0abc2e9741871a3d9d72a3fd96b71cec717c90b8642930604e4a1f7f363a0c",
    "resource": {
      "resourceType": "Observation",
      "meta": {
        "profile": [ "https://www.netzwerk-universitaetsmedizin.de/fhir/StructureDefinition/oxygen-partial-pressure" ]
      },
      "identifier": [ {
        "type": {
          "coding": [ {
            "system": "http://terminology.hl7.org/CodeSystem/v2-0203",
            "code": "OBI",
            "display": "Observation Instance Identifier"
          } ]
        },
        "system": "https://mein.krankenhaus.de/fhir/NamingSystem/observationId",
        "value": "87957d01c466310a60d62372ec432eff984303660a2292d1d5764f4daeff9c7c",
        "assigner": {
          "reference": "Organization/3a4f3433bce81181bad2d8e0b8fafccf7dc800bc06f29be73dcb38b750a48f9a"
        }
      } ],
      "status": "final",
      "category": [ {
        "coding": [ {
          "system": "http://terminology.hl7.org/CodeSystem/observation-category",
          "code": "laboratory",
          "display": "Laboratory"
        }, {
          "system": "http://loinc.org",
          "code": "26436-6",
          "display": "Laboratory studies (set)"
        }, {
          "system": "http://loinc.org",
          "code": "18767-4",
          "display": "Blood gas studies (set)"
        } ]
      } ],
      "code": {
        "coding": [ {
          "system": "http://loinc.org",
          "code": "11557-8"
        } ],
        "text": "Oxygen [Partial pressure] in blood"
      },
      "subject": {
        "reference": "Patient/532026d52cef4c0269e87d90da8bad79b28431d5f520945a0f2d61017576fd8d"
      },
      "encounter": {
        "reference": "Encounter/328723566c2469ff310f2958443bf255f62ac0de6c8c9d7b2d32cdb03b816858"
      },
      "effectiveDateTime": "2020-02-14T18:04:00+00:00",
      "valueQuantity": {
        "value": 13,
        "unit": "mmHg",
        "system": "http://unitsofmeasure.org",
        "code": "mm[Hg]"
      }
    },
    "request": {
      "method": "POST",
      "url": "Observation",
      "ifNoneExist": "identifier=https://mein.krankenhaus.de/fhir/NamingSystem/observationId|9d0abc2e9741871a3d9d72a3fd96b71cec717c90b8642930604e4a1f7f363a0c"
    }
  }, {
    "fullUrl": "Observation/743f2be3683356d287bc253d5969a77179bf5936bd19cea4438bf7f40f446d21",
    "resource": {
      "resourceType": "Observation",
      "meta": {
        "profile": [ "https://www.netzwerk-universitaetsmedizin.de/fhir/StructureDefinition/inhaled-oxygen-concentration" ]
      },
      "identifier": [ {
        "type": {
          "coding": [ {
            "system": "http://terminology.hl7.org/CodeSystem/v2-0203",
            "code": "OBI",
            "display": "Observation Instance Identifier"
          } ]
        },
        "system": "https://mein.krankenhaus.de/fhir/NamingSystem/observationId",
        "value": "098ba698cefa972cb4580aca9f0940d7d268a58312baee5d5d35bce30bb80de6",
        "assigner": {
          "reference": "Organization/3a4f3433bce81181bad2d8e0b8fafccf7dc800bc06f29be73dcb38b750a48f9a"
        }
      } ],
      "status": "final",
      "category": [ {
        "coding": [ {
          "system": "http://terminology.hl7.org/CodeSystem/observation-category",
          "code": "laboratory",
          "display": "Laboratory"
        }, {
          "system": "http://loinc.org",
          "code": "26436-6",
          "display": "Laboratory studies (set)"
        }, {
          "system": "http://loinc.org",
          "code": "18767-4",
          "display": "Blood gas studies (set)"
        } ]
      } ],
      "code": {
        "coding": [ {
          "system": "http://loinc.org",
          "code": "3150-0"
        }, {
          "system": "http://snomed.info/sct",
          "code": "250774007"
        } ],
        "text": "Oxygen [Partial pressure] in blood"
      },
      "subject": {
        "reference": "Patient/532026d52cef4c0269e87d90da8bad79b28431d5f520945a0f2d61017576fd8d"
      },
      "encounter": {
        "reference": "Encounter/328723566c2469ff310f2958443bf255f62ac0de6c8c9d7b2d32cdb03b816858"
      },
      "effectiveDateTime": "2020-02-14T18:04:00+00:00",
      "valueQuantity": {
        "value": 85.85337517778582,
        "unit": "%",
        "system": "http://unitsofmeasure.org",
        "code": "%"
      }
    },
    "request": {
      "method": "POST",
      "url": "Observation",
      "ifNoneExist": "identifier=https://mein.krankenhaus.de/fhir/NamingSystem/observationId|743f2be3683356d287bc253d5969a77179bf5936bd19cea4438bf7f40f446d21"
    }
  }, {
    "fullUrl": "Observation/3f1ad256810965fdc23e50af31bf0b640a9f6b5ec68fa4024d1b6b1a19033e74",
    "resource": {
      "resourceType": "Observation",
      "meta": {
        "profile": [ "https://www.netzwerk-universitaetsmedizin.de/fhir/StructureDefinition/pH" ]
      },
      "identifier": [ {
        "type": {
          "coding": [ {
            "system": "http://terminology.hl7.org/CodeSystem/v2-0203",
            "code": "OBI",
            "display": "Observation Instance Identifier"
          } ]
        },
        "system": "https://mein.krankenhaus.de/fhir/NamingSystem/observationId",
        "value": "74c467c12dd9ceb0e9ec6a0975ed4e6312c3fee69c13b6994f47ef1c434949e8",
        "assigner": {
          "reference": "Organization/3a4f3433bce81181bad2d8e0b8fafccf7dc800bc06f29be73dcb38b750a48f9a"
        }
      } ],
      "status": "final",
      "category": [ {
        "coding": [ {
          "system": "http://terminology.hl7.org/CodeSystem/observation-category",
          "code": "laboratory",
          "display": "Laboratory"
        }, {
          "system": "http://loinc.org",
          "code": "26436-6",
          "display": "Laboratory studies (set)"
        }, {
          "system": "http://loinc.org",
          "code": "18767-4",
          "display": "Blood gas studies (set)"
        } ]
      } ],
      "code": {
        "coding": [ {
          "system": "http://loinc.org",
          "code": "11558-4"
        } ],
        "text": "pH of Blood"
      },
      "subject": {
        "reference": "Patient/532026d52cef4c0269e87d90da8bad79b28431d5f520945a0f2d61017576fd8d"
      },
      "encounter": {
        "reference": "Encounter/328723566c2469ff310f2958443bf255f62ac0de6c8c9d7b2d32cdb03b816858"
      },
      "effectiveDateTime": "2020-02-14T18:04:00+00:00",
      "valueQuantity": {
        "value": 12.989125869504091,
        "unit": "pH",
        "system": "http://unitsofmeasure.org",
        "code": "[pH]"
      }
    },
    "request": {
      "method": "POST",
      "url": "Observation",
      "ifNoneExist": "identifier=https://mein.krankenhaus.de/fhir/NamingSystem/observationId|3f1ad256810965fdc23e50af31bf0b640a9f6b5ec68fa4024d1b6b1a19033e74"
    }
  }, {
    "fullUrl": "Observation/2a9e61f6e88379f736f8a1a048cdf1a18035811af5f3462ac00448a2d24db7a6",
    "resource": {
      "resourceType": "Observation",
      "meta": {
        "profile": [ "https://www.netzwerk-universitaetsmedizin.de/fhir/StructureDefinition/sofa-score" ]
      },
      "identifier": [ {
        "type": {
          "coding": [ {
            "system": "http://terminology.hl7.org/CodeSystem/v2-0203",
            "code": "OBI",
            "display": "Observation Instance Identifier"
          } ]
        },
        "system": "https://mein.krankenhaus.de/fhir/NamingSystem/observationId",
        "value": "7b7c8537d35f695908f0cf7cd5b61738c14ef972c3e9fbbbeeacedd92ed79a48",
        "assigner": {
          "reference": "Organization/3a4f3433bce81181bad2d8e0b8fafccf7dc800bc06f29be73dcb38b750a48f9a"
        }
      } ],
      "status": "final",
      "category": [ {
        "coding": [ {
          "system": "http://terminology.hl7.org/CodeSystem/observation-category",
          "code": "survey",
          "display": "Survey"
        } ]
      } ],
      "code": {
        "coding": [ {
          "system": "https://www.netzwerk-universitaetsmedizin.de/fhir/CodeSystem/ecrf-parameter-codes",
          "code": "06",
          "display": "SOFA-Score"
        } ],
        "text": "Sepsis-related organ failure assessment score"
      },
      "subject": {
        "reference": "Patient/532026d52cef4c0269e87d90da8bad79b28431d5f520945a0f2d61017576fd8d"
      },
      "encounter": {
        "reference": "Encounter/328723566c2469ff310f2958443bf255f62ac0de6c8c9d7b2d32cdb03b816858"
      },
      "effectiveDateTime": "2020-02-14T18:04:00+00:00",
      "valueInteger": 9,
      "component": [ {
        "code": {
          "coding": [ {
            "system": "https://www.netzwerk-universitaetsmedizin.de/fhir/CodeSystem/sofa-score",
            "code": "resp",
            "display": "Respiratory system"
          } ],
          "text": "SOFA Respiratory system scoring category"
        },
        "valueCodeableConcept": {
          "coding": [ {
            "system": "https://www.netzwerk-universitaetsmedizin.de/fhir/CodeSystem/sofa-score",
            "code": "resp3",
            "display": "Respiratory system SOFA score 3"
          } ],
          "text": "PaO2/FiO2 [mmHg (kPa)] < 200 (26.7) and mechanically ventilated"
        }
      }, {
        "code": {
          "coding": [ {
            "system": "https://www.netzwerk-universitaetsmedizin.de/fhir/CodeSystem/sofa-score",
            "code": "ns",
            "display": "Nervous system"
          } ],
          "text": "SOFA Nervous system scoring category"
        },
        "valueCodeableConcept": {
          "coding": [ {
            "system": "https://www.netzwerk-universitaetsmedizin.de/fhir/CodeSystem/sofa-score",
            "code": "ns0",
            "display": "Nervous system SOFA score 0"
          } ],
          "text": "Glasgow Coma Scale (GCS) 15"
        }
      }, {
        "code": {
          "coding": [ {
            "system": "https://www.netzwerk-universitaetsmedizin.de/fhir/CodeSystem/sofa-score",
            "code": "kid",
            "display": "Kidneys"
          } ],
          "text": "SOFA Kidneys scoring category"
        },
        "valueCodeableConcept": {
          "coding": [ {
            "system": "https://www.netzwerk-universitaetsmedizin.de/fhir/CodeSystem/sofa-score",
            "code": "kid4",
            "display": "Kidneys SOFA score 4"
          } ],
          "text": "Creatinine (mg/dl) [umol/L] (or urine output) > 5.0 [> 440] (or < 200 ml/d)"
        }
      }, {
        "code": {
          "coding": [ {
            "system": "https://www.netzwerk-universitaetsmedizin.de/fhir/CodeSystem/sofa-score",
            "code": "cvs",
            "display": "Cardiovascular system"
          } ],
          "text": "SOFA Cardiovascular system scoring category"
        },
        "valueCodeableConcept": {
          "coding": [ {
            "system": "https://www.netzwerk-universitaetsmedizin.de/fhir/CodeSystem/sofa-score",
            "code": "cvs0",
            "display": "Cardiovascular system SOFA score 0"
          } ],
          "text": "Mean arterial pressure (definitions)  70 mmHg"
        }
      }, {
        "code": {
          "coding": [ {
            "system": "https://www.netzwerk-universitaetsmedizin.de/fhir/CodeSystem/sofa-score",
            "code": "liv",
            "display": "Liver"
          } ],
          "text": "SOFA Liver scoring category"
        },
        "valueCodeableConcept": {
          "coding": [ {
            "system": "https://www.netzwerk-universitaetsmedizin.de/fhir/CodeSystem/sofa-score",
            "code": "liv1",
            "display": "Liver SOFA score 1"
          } ],
          "text": "Bilirubin (mg/dl) [umol/L] 1.2-1.9 [20-32]"
        }
      }, {
        "code": {
          "coding": [ {
            "system": "https://www.netzwerk-universitaetsmedizin.de/fhir/CodeSystem/sofa-score",
            "code": "coa",
            "display": "Coagulation"
          } ],
          "text": "SOFA Coagulation scoring category"
        },
        "valueCodeableConcept": {
          "coding": [ {
            "system": "https://www.netzwerk-universitaetsmedizin.de/fhir/CodeSystem/sofa-score",
            "code": "coa1",
            "display": "Coagulation SOFA score 1"
          } ],
          "text": "Platelets10^3/ul < 150"
        }
      } ]
    },
    "request": {
      "method": "POST",
      "url": "Observation",
      "ifNoneExist": "identifier=https://mein.krankenhaus.de/fhir/NamingSystem/observationId|2a9e61f6e88379f736f8a1a048cdf1a18035811af5f3462ac00448a2d24db7a6"
    }
  }, {
    "fullUrl": "Observation/ff7deb40678035595d14c441ffb9b40ece7274dd85e7bd456e90da588e27d037",
    "resource": {
      "resourceType": "Observation",
      "meta": {
        "profile": [ "https://www.netzwerk-universitaetsmedizin.de/fhir/StructureDefinition/respiratory-rate" ]
      },
      "identifier": [ {
        "type": {
          "coding": [ {
            "system": "http://terminology.hl7.org/CodeSystem/v2-0203",
            "code": "OBI",
            "display": "Observation Instance Identifier"
          } ]
        },
        "system": "https://mein.krankenhaus.de/fhir/NamingSystem/observationId",
        "value": "35d697d9ef207851bbe1617abb703cf667a92671df4049d34dccee25a86105d2",
        "assigner": {
          "reference": "Organization/3a4f3433bce81181bad2d8e0b8fafccf7dc800bc06f29be73dcb38b750a48f9a"
        }
      } ],
      "status": "final",
      "category": [ {
        "coding": [ {
          "system": "http://terminology.hl7.org/CodeSystem/observation-category",
          "code": "vital-signs",
          "display": "Vital Signs"
        } ]
      } ],
      "code": {
        "coding": [ {
          "system": "http://loinc.org",
          "code": "9279-1"
        }, {
          "system": "http://snomed.info/sct",
          "code": "86290005"
        } ],
        "text": "Respiratory rate"
      },
      "subject": {
        "reference": "Patient/532026d52cef4c0269e87d90da8bad79b28431d5f520945a0f2d61017576fd8d"
      },
      "encounter": {
        "reference": "Encounter/328723566c2469ff310f2958443bf255f62ac0de6c8c9d7b2d32cdb03b816858"
      },
      "effectiveDateTime": "2020-02-14T18:04:00+00:00",
      "valueQuantity": {
        "value": 11,
        "unit": "per minute",
        "system": "http://unitsofmeasure.org",
        "code": "/min"
      }
    },
    "request": {
      "method": "POST",
      "url": "Observation",
      "ifNoneExist": "identifier=https://mein.krankenhaus.de/fhir/NamingSystem/observationId|ff7deb40678035595d14c441ffb9b40ece7274dd85e7bd456e90da588e27d037"
    }
  }, {
    "fullUrl": "Observation/9e3a4cd90c5a4078e81720b13c6a48d4ebdca12206dde0a8b582cb35f7e1fb6a",
    "resource": {
      "resourceType": "Observation",
      "meta": {
        "profile": [ "https://www.netzwerk-universitaetsmedizin.de/fhir/StructureDefinition/blood-pressure" ]
      },
      "identifier": [ {
        "type": {
          "coding": [ {
            "system": "http://terminology.hl7.org/CodeSystem/v2-0203",
            "code": "OBI",
            "display": "Observation Instance Identifier"
          } ]
        },
        "system": "https://mein.krankenhaus.de/fhir/NamingSystem/observationId",
        "value": "b77e4138c438d78e550559460349cb487f76c1f07c781921b7c1aaeee2c88220",
        "assigner": {
          "reference": "Organization/3a4f3433bce81181bad2d8e0b8fafccf7dc800bc06f29be73dcb38b750a48f9a"
        }
      } ],
      "status": "final",
      "category": [ {
        "coding": [ {
          "system": "http://terminology.hl7.org/CodeSystem/observation-category",
          "code": "vital-signs",
          "display": "Vital Signs"
        } ]
      } ],
      "code": {
        "coding": [ {
          "system": "http://loinc.org",
          "code": "85354-9",
          "display": "Blood pressure panel with all children optional"
        }, {
          "system": "http://snomed.info/sct",
          "code": "75367002",
          "display": "Blood pressure (observable entity)"
        } ],
        "text": "Blood pressure"
      },
      "subject": {
        "reference": "Patient/532026d52cef4c0269e87d90da8bad79b28431d5f520945a0f2d61017576fd8d"
      },
      "encounter": {
        "reference": "Encounter/328723566c2469ff310f2958443bf255f62ac0de6c8c9d7b2d32cdb03b816858"
      },
      "effectiveDateTime": "2020-02-14T18:04:00+00:00",
      "component": [ {
        "code": {
          "coding": [ {
            "system": "http://loinc.org",
            "code": "8480-6"
          }, {
            "system": "http://snomed.info/sct",
            "code": "271649006"
          } ],
          "text": "Systolic blood pressure"
        },
        "valueQuantity": {
          "value": 124,
          "unit": "mmHg",
          "system": "http://unitsofmeasure.org",
          "code": "mm[Hg]"
        }
      }, {
        "code": {
          "coding": [ {
            "system": "http://loinc.org",
            "code": "8462-4"
          }, {
            "system": "http://snomed.info/sct",
            "code": "271650006"
          } ],
          "text": "Diastolic blood pressure"
        },
        "valueQuantity": {
          "value": 208,
          "unit": "mmHg",
          "system": "http://unitsofmeasure.org",
          "code": "mm[Hg]"
        }
      } ]
    },
    "request": {
      "method": "POST",
      "url": "Observation",
      "ifNoneExist": "identifier=https://mein.krankenhaus.de/fhir/NamingSystem/observationId|9e3a4cd90c5a4078e81720b13c6a48d4ebdca12206dde0a8b582cb35f7e1fb6a"
    }
  }, {
    "fullUrl": "Observation/ce08eb9cee4180055cc4b9e87b129711497d1af8e4b53b0d25d6853ea9cc69e7",
    "resource": {
      "resourceType": "Observation",
      "meta": {
        "profile": [ "https://www.netzwerk-universitaetsmedizin.de/fhir/StructureDefinition/heart-rate" ]
      },
      "identifier": [ {
        "type": {
          "coding": [ {
            "system": "http://terminology.hl7.org/CodeSystem/v2-0203",
            "code": "OBI",
            "display": "Observation Instance Identifier"
          } ]
        },
        "system": "https://mein.krankenhaus.de/fhir/NamingSystem/observationId",
        "value": "6f528c608a02b6f4de19140406e4405001f029dfa4d894996641ad444fbcd6b9",
        "assigner": {
          "reference": "Organization/3a4f3433bce81181bad2d8e0b8fafccf7dc800bc06f29be73dcb38b750a48f9a"
        }
      } ],
      "status": "final",
      "category": [ {
        "coding": [ {
          "system": "http://terminology.hl7.org/CodeSystem/observation-category",
          "code": "vital-signs",
          "display": "Vital Signs"
        } ]
      } ],
      "code": {
        "coding": [ {
          "system": "http://loinc.org",
          "code": "8867-4"
        }, {
          "system": "http://snomed.info/sct",
          "code": "364075005"
        } ],
        "text": "Heart rate"
      },
      "subject": {
        "reference": "Patient/532026d52cef4c0269e87d90da8bad79b28431d5f520945a0f2d61017576fd8d"
      },
      "encounter": {
        "reference": "Encounter/328723566c2469ff310f2958443bf255f62ac0de6c8c9d7b2d32cdb03b816858"
      },
      "effectiveDateTime": "2020-02-14T18:04:00+00:00",
      "valueQuantity": {
        "value": 117,
        "unit": "per minute",
        "system": "http://unitsofmeasure.org",
        "code": "/min"
      }
    },
    "request": {
      "method": "POST",
      "url": "Observation",
      "ifNoneExist": "identifier=https://mein.krankenhaus.de/fhir/NamingSystem/observationId|ce08eb9cee4180055cc4b9e87b129711497d1af8e4b53b0d25d6853ea9cc69e7"
    }
  }, {
    "fullUrl": "Observation/b6ebf4881e8d8c23cdb29011ba1f2b31a534e805744d91bb2035e2ef019235b5",
    "resource": {
      "resourceType": "Observation",
      "meta": {
        "profile": [ "https://www.netzwerk-universitaetsmedizin.de/fhir/StructureDefinition/body-temperature" ]
      },
      "identifier": [ {
        "type": {
          "coding": [ {
            "system": "http://terminology.hl7.org/CodeSystem/v2-0203",
            "code": "OBI",
            "display": "Observation Instance Identifier"
          } ]
        },
        "system": "https://mein.krankenhaus.de/fhir/NamingSystem/observationId",
        "value": "c569e0afb93e77633a48fcd73d44e98cfb8a902bb8eedf26989f6c5f90e41e8f",
        "assigner": {
          "reference": "Organization/3a4f3433bce81181bad2d8e0b8fafccf7dc800bc06f29be73dcb38b750a48f9a"
        }
      } ],
      "status": "final",
      "category": [ {
        "coding": [ {
          "system": "http://terminology.hl7.org/CodeSystem/observation-category",
          "code": "vital-signs",
          "display": "Vital Signs"
        } ]
      } ],
      "code": {
        "coding": [ {
          "system": "http://loinc.org",
          "code": "8310-5"
        }, {
          "system": "http://snomed.info/sct",
          "code": "386725007"
        } ],
        "text": "Body temperature"
      },
      "subject": {
        "reference": "Patient/532026d52cef4c0269e87d90da8bad79b28431d5f520945a0f2d61017576fd8d"
      },
      "encounter": {
        "reference": "Encounter/328723566c2469ff310f2958443bf255f62ac0de6c8c9d7b2d32cdb03b816858"
      },
      "effectiveDateTime": "2020-02-14T18:04:00+00:00",
      "valueQuantity": {
        "value": 28.58457465823541,
        "unit": "C",
        "system": "http://unitsofmeasure.org",
        "code": "Cel"
      }
    },
    "request": {
      "method": "POST",
      "url": "Observation",
      "ifNoneExist": "identifier=https://mein.krankenhaus.de/fhir/NamingSystem/observationId|b6ebf4881e8d8c23cdb29011ba1f2b31a534e805744d91bb2035e2ef019235b5"
    }
  }, {
    "fullUrl": "Observation/9730a055abd2510c63ed65ca8554e332a6f5e2bcf1b29c2c33c4a158ffc138f6",
    "resource": {
      "resourceType": "Observation",
      "meta": {
        "profile": [ "https://www.netzwerk-universitaetsmedizin.de/fhir/StructureDefinition/oxygen-saturation" ]
      },
      "identifier": [ {
        "type": {
          "coding": [ {
            "system": "http://terminology.hl7.org/CodeSystem/v2-0203",
            "code": "OBI",
            "display": "Observation Instance Identifier"
          } ]
        },
        "system": "https://mein.krankenhaus.de/fhir/NamingSystem/observationId",
        "value": "521f0b702b4b534501e3121c253e75123c9832521d6961ca4333bf8ce9640500",
        "assigner": {
          "reference": "Organization/3a4f3433bce81181bad2d8e0b8fafccf7dc800bc06f29be73dcb38b750a48f9a"
        }
      } ],
      "status": "final",
      "category": [ {
        "coding": [ {
          "system": "http://terminology.hl7.org/CodeSystem/observation-category",
          "code": "vital-signs",
          "display": "Vital Signs"
        } ]
      } ],
      "code": {
        "coding": [ {
          "system": "http://loinc.org",
          "code": "2708-6"
        }, {
          "system": "http://loinc.org",
          "code": "59408-5"
        }, {
          "system": "http://loinc.org",
          "code": "20564-1"
        }, {
          "system": "http://snomed.info/sct",
          "code": "431314004"
        } ],
        "text": "Oxygen saturation in Arterial blood"
      },
      "subject": {
        "reference": "Patient/532026d52cef4c0269e87d90da8bad79b28431d5f520945a0f2d61017576fd8d"
      },
      "encounter": {
        "reference": "Encounter/328723566c2469ff310f2958443bf255f62ac0de6c8c9d7b2d32cdb03b816858"
      },
      "effectiveDateTime": "2020-02-14T18:04:00+00:00",
      "valueQuantity": {
        "value": 88,
        "unit": "%",
        "system": "http://unitsofmeasure.org",
        "code": "%"
      }
    },
    "request": {
      "method": "POST",
      "url": "Observation",
      "ifNoneExist": "identifier=https://mein.krankenhaus.de/fhir/NamingSystem/observationId|9730a055abd2510c63ed65ca8554e332a6f5e2bcf1b29c2c33c4a158ffc138f6"
    }
  }, {
    "fullUrl": "Observation/d8709d1a53fc4b0cb55355987cd6579a312cc14e2556f2d9965f2dc3b0d444df",
    "resource": {
      "resourceType": "Observation",
      "meta": {
        "profile": [ "https://www.netzwerk-universitaetsmedizin.de/fhir/StructureDefinition/study-inclusion-covid-19" ]
      },
      "identifier": [ {
        "type": {
          "coding": [ {
            "system": "http://terminology.hl7.org/CodeSystem/v2-0203",
            "code": "OBI",
            "display": "Observation Instance Identifier"
          } ]
        },
        "system": "https://mein.krankenhaus.de/fhir/NamingSystem/observationId",
        "value": "b8b61dad3b60b45574fad8e87da834ebafd45b7a7c2c8a35f6af6b2c7fb74bf9",
        "assigner": {
          "reference": "Organization/3a4f3433bce81181bad2d8e0b8fafccf7dc800bc06f29be73dcb38b750a48f9a"
        }
      } ],
      "status": "final",
      "category": [ {
        "coding": [ {
          "system": "http://terminology.hl7.org/CodeSystem/observation-category",
          "code": "survey",
          "display": "Survey"
        } ]
      } ],
      "code": {
        "coding": [ {
          "system": "https://www.netzwerk-universitaetsmedizin.de/fhir/CodeSystem/ecrf-parameter-codes",
          "code": "02",
          "display": "Study inclusion due to Covid-19"
        } ],
        "text": "Confirmed Covid-19 diagnosis as main reason for enrolment in the study"
      },
      "subject": {
        "reference": "Patient/532026d52cef4c0269e87d90da8bad79b28431d5f520945a0f2d61017576fd8d"
      },
      "_effectiveDateTime": {
        "extension": [ {
          "url": "http://hl7.org/fhir/StructureDefinition/data-absent-reason",
          "valueCode": "unknown"
        } ]
      },
      "valueCodeableConcept": {
        "coding": [ {
          "system": "http://snomed.info/sct",
          "code": "373066001"
        } ]
      }
    },
    "request": {
      "method": "POST",
      "url": "Observation",
      "ifNoneExist": "identifier=https://mein.krankenhaus.de/fhir/NamingSystem/observationId|d8709d1a53fc4b0cb55355987cd6579a312cc14e2556f2d9965f2dc3b0d444df"
    }
  }, {
    "fullUrl": "Observation/10f20bb7c50b0c760e12d0b1b588eef7585287620456a0c1145cfc880565b22b",
    "resource": {
      "resourceType": "Observation",
      "meta": {
        "profile": [ "https://www.netzwerk-universitaetsmedizin.de/fhir/StructureDefinition/interventional-clinical-trial-participation" ]
      },
      "identifier": [ {
        "type": {
          "coding": [ {
            "system": "http://terminology.hl7.org/CodeSystem/v2-0203",
            "code": "OBI",
            "display": "Observation Instance Identifier"
          } ]
        },
        "system": "https://mein.krankenhaus.de/fhir/NamingSystem/observationId",
        "value": "8d149cda68dc92ad9ccf13ccd4ab030c559ad8c77e5340ae2eb88246482af603",
        "assigner": {
          "reference": "Organization/3a4f3433bce81181bad2d8e0b8fafccf7dc800bc06f29be73dcb38b750a48f9a"
        }
      } ],
      "status": "final",
      "category": [ {
        "coding": [ {
          "system": "http://terminology.hl7.org/CodeSystem/observation-category",
          "code": "survey",
          "display": "Survey"
        } ]
      } ],
      "code": {
        "coding": [ {
          "system": "https://www.netzwerk-universitaetsmedizin.de/fhir/CodeSystem/ecrf-parameter-codes",
          "code": "03",
          "display": "Participation in interventional clinical trials"
        } ],
        "text": "Has the patient participated in one or more interventional clinical trials?"
      },
      "subject": {
        "reference": "Patient/532026d52cef4c0269e87d90da8bad79b28431d5f520945a0f2d61017576fd8d"
      },
      "_effectiveDateTime": {
        "extension": [ {
          "url": "http://hl7.org/fhir/StructureDefinition/data-absent-reason",
          "valueCode": "unknown"
        } ]
      },
      "valueCodeableConcept": {
        "coding": [ {
          "system": "http://snomed.info/sct",
          "code": "373066001"
        } ]
      }
    },
    "request": {
      "method": "POST",
      "url": "Observation",
      "ifNoneExist": "identifier=https://mein.krankenhaus.de/fhir/NamingSystem/observationId|10f20bb7c50b0c760e12d0b1b588eef7585287620456a0c1145cfc880565b22b"
    }
  } ]
}