{
  "resourceType": "Bundle",
  "meta": {
    "profile": [ "https://www.netzwerk-universitaetsmedizin.de/fhir/StructureDefinition/gecco-bundle" ]
  },
  "type": "transaction",
  "entry": [ {
    "fullUrl": "Patient/329772ee46b8fb52fbc8569d5c0d0636ec4a97f950a07b65dce87dfff260401e",
    "resource": {
      "resourceType": "Patient",
      "meta": {
        "profile": [ "https://www.netzwerk-universitaetsmedizin.de/fhir/StructureDefinition/Patient" ]
      },
      "extension": [ {
        "url": "https://www.netzwerk-universitaetsmedizin.de/fhir/StructureDefinition/ethnic-group",
        "valueCoding": {
          "system": "urn:oid:2.16.840.1.113883.6.238",
          "code": "2135-2"
        }
      } ],
      "identifier": [ {
        "type": {
          "coding": [ {
            "system": "http://terminology.hl7.org/CodeSystem/v2-0203",
            "code": "MR"
          } ]
        },
        "system": "https://mein.krankenhaus.de/fhir/NamingSystem/patientId",
        "value": "synthetic_patient_809949412",
        "assigner": {
          "reference": "Organization/3a4f3433bce81181bad2d8e0b8fafccf7dc800bc06f29be73dcb38b750a48f9a"
        }
      } ],
      "birthDate": "1994-01-27"
    },
    "request": {
      "method": "POST",
      "url": "Patient",
      "ifNoneExist": "identifier=https://mein.krankenhaus.de/fhir/NamingSystem/patientId|329772ee46b8fb52fbc8569d5c0d0636ec4a97f950a07b65dce87dfff260401e"
    }
  }, {
    "fullUrl": "Organization/3a4f3433bce81181bad2d8e0b8fafccf7dc800bc06f29be73dcb38b750a48f9a",
    "resource": {
      "resourceType": "Organization",
      "name": "Mein Krankenhaus"
    },
    "request": {
      "method": "POST",
      "url": "Organization",
      "ifNoneExist": "identifier=null|3a4f3433bce81181bad2d8e0b8fafccf7dc800bc06f29be73dcb38b750a48f9a"
    }
  }, {
    "fullUrl": "Encounter/012d5fc79be7afddb721915fcfd2cf3f312fb138a6ce7ec051c34ef595ed9eb8",
    "resource": {
      "resourceType": "Encounter",
      "identifier": [ {
        "system": "https://mein.krankenhaus.de/fhir/NamingSystem/encounterId",
        "value": "d24ef9bfc43f113783db75befc66496632f2f347b96da173323f7888a16c53b5",
        "assigner": {
          "reference": "Organization/3a4f3433bce81181bad2d8e0b8fafccf7dc800bc06f29be73dcb38b750a48f9a"
        }
      } ],
      "status": "unknown",
      "class": {
        "system": "http://terminology.hl7.org/CodeSystem/v3-ActCode",
        "code": "IMP",
        "display": "inpatient encounter"
      },
      "subject": {
        "reference": "Patient/329772ee46b8fb52fbc8569d5c0d0636ec4a97f950a07b65dce87dfff260401e"
      }
    },
    "request": {
      "method": "POST",
      "url": "Encounter",
      "ifNoneExist": "identifier=https://mein.krankenhaus.de/fhir/NamingSystem/encounterId|012d5fc79be7afddb721915fcfd2cf3f312fb138a6ce7ec051c34ef595ed9eb8"
    }
  }, {
    "fullUrl": "Condition/e46000f59a2a8803ee28bd6f760a41a55c85cc9d9f26216c407beb6d292c561e",
    "resource": {
      "resourceType": "Condition",
      "meta": {
        "profile": [ "https://www.netzwerk-universitaetsmedizin.de/fhir/StructureDefinition/diagnosis-covid-19" ]
      },
      "identifier": [ {
        "system": "https://mein.krankenhaus.de/fhir/NamingSystem/conditionId",
        "value": "40a59214eb68f0335899eb9d74cd6a6c344f0ada645c1baeecb90d43cebf7540"
      } ],
      "clinicalStatus": {
        "coding": [ {
          "system": "http://terminology.hl7.org/CodeSystem/condition-clinical",
          "code": "active",
          "display": "Active"
        } ]
      },
      "verificationStatus": {
        "coding": [ {
          "system": "http://terminology.hl7.org/CodeSystem/condition-ver-status",
          "code": "confirmed",
          "display": "Confirmed"
        }, {
          "system": "http://snomed.info/sct",
          "code": "410605003",
          "display": "Confirmed present (qualifier value)"
        } ]
      },
      "category": [ {
        "coding": [ {
          "system": "http://snomed.info/sct",
          "code": "394807007",
          "display": "Infectious diseases (specialty) (qualifier value)"
        } ]
      } ],
      "code": {
        "coding": [ {
          "system": "http://snomed.info/sct",
          "code": "840539006",
          "display": "Disease caused by Severe acute respiratory syndrome coronavirus 2 (disorder)"
        } ]
      },
      "subject": {
        "reference": "Patient/329772ee46b8fb52fbc8569d5c0d0636ec4a97f950a07b65dce87dfff260401e"
      },
      "encounter": {
        "reference": "Encounter/012d5fc79be7afddb721915fcfd2cf3f312fb138a6ce7ec051c34ef595ed9eb8"
      },
      "_recordedDate": {
        "extension": [ {
          "url": "http://hl7.org/fhir/StructureDefinition/data-absent-reason",
          "valueCode": "unknown"
        } ]
      },
      "stage": [ {
        "summary": {
          "coding": [ {
            "system": "http://snomed.info/sct",
            "code": "277022003"
          } ]
        },
        "type": {
          "coding": [ {
            "system": "http://loinc.org",
            "code": "88859-4"
          } ]
        }
      } ]
    },
    "request": {
      "method": "POST",
      "url": "Condition",
      "ifNoneExist": "identifier=https://mein.krankenhaus.de/fhir/NamingSystem/conditionId|e46000f59a2a8803ee28bd6f760a41a55c85cc9d9f26216c407beb6d292c561e"
    }
  }, {
    "fullUrl": "Condition/4a30e6b0b3df7562a225a82d384db9f7048b20776872b1c7f68539f90c2fa3fc",
    "resource": {
      "resourceType": "Condition",
      "meta": {
        "profile": [ "https://www.netzwerk-universitaetsmedizin.de/fhir/StructureDefinition/chronic-lung-diseases" ]
      },
      "identifier": [ {
        "system": "https://mein.krankenhaus.de/fhir/NamingSystem/conditionId",
        "value": "31d477c4121650f2879dfbb18695ef1b5f40bcfbff998909eb4b22c1ab0ddc9b"
      } ],
      "clinicalStatus": {
        "coding": [ {
          "system": "http://terminology.hl7.org/CodeSystem/condition-clinical",
          "code": "active",
          "display": "Active"
        } ]
      },
      "verificationStatus": {
        "coding": [ {
          "system": "http://terminology.hl7.org/CodeSystem/condition-ver-status",
          "code": "confirmed",
          "display": "Confirmed"
        }, {
          "system": "http://snomed.info/sct",
          "code": "410605003",
          "display": "Confirmed present (qualifier value)"
        } ]
      },
      "category": [ {
        "coding": [ {
          "system": "http://snomed.info/sct",
          "code": "418112009",
          "display": "Pulmonary medicine (qualifier value)"
        } ]
      } ],
      "code": {
        "coding": [ {
          "system": "http://fhir.de/CodeSystem/dimdi/icd-10-gm",
          "version": "2021",
          "code": "J45.9"
        }, {
          "system": "http://snomed.info/sct",
          "code": "195967001"
        } ]
      },
      "subject": {
        "reference": "Patient/329772ee46b8fb52fbc8569d5c0d0636ec4a97f950a07b65dce87dfff260401e"
      },
      "encounter": {
        "reference": "Encounter/012d5fc79be7afddb721915fcfd2cf3f312fb138a6ce7ec051c34ef595ed9eb8"
      },
      "_recordedDate": {
        "extension": [ {
          "url": "http://hl7.org/fhir/StructureDefinition/data-absent-reason",
          "valueCode": "unknown"
        } ]
      }
    },
    "request": {
      "method": "POST",
      "url": "Condition",
      "ifNoneExist": "identifier=https://mein.krankenhaus.de/fhir/NamingSystem/conditionId|4a30e6b0b3df7562a225a82d384db9f7048b20776872b1c7f68539f90c2fa3fc"
    }
  }, {
    "fullUrl": "Condition/51fcf0f409044eebfc32bcd1420c8c013d7a8cbf42ce1042d31cb1c95114a3c0",
    "resource": {
      "resourceType": "Condition",
      "meta": {
        "profile": [ "https://www.netzwerk-universitaetsmedizin.de/fhir/StructureDefinition/chronic-lung-diseases" ]
      },
      "identifier": [ {
        "system": "https://mein.krankenhaus.de/fhir/NamingSystem/conditionId",
        "value": "ebfaa8d9ecc1030d10f1c796854ab91d5380c0037d07977b9ba1253264418280"
      } ],
      "verificationStatus": {
        "coding": [ {
          "system": "http://terminology.hl7.org/CodeSystem/condition-ver-status",
          "code": "refuted",
          "display": "Refuted"
        }, {
          "system": "http://snomed.info/sct",
          "code": "410594000",
          "display": "Definitely NOT present (qualifier value)"
        } ]
      },
      "category": [ {
        "coding": [ {
          "system": "http://snomed.info/sct",
          "code": "418112009",
          "display": "Pulmonary medicine (qualifier value)"
        } ]
      } ],
      "code": {
        "coding": [ {
          "system": "http://fhir.de/CodeSystem/dimdi/icd-10-gm",
          "version": "2021",
          "code": "J44.9"
        }, {
          "system": "http://snomed.info/sct",
          "code": "13645005"
        } ]
      },
      "subject": {
        "reference": "Patient/329772ee46b8fb52fbc8569d5c0d0636ec4a97f950a07b65dce87dfff260401e"
      },
      "encounter": {
        "reference": "Encounter/012d5fc79be7afddb721915fcfd2cf3f312fb138a6ce7ec051c34ef595ed9eb8"
      },
      "_recordedDate": {
        "extension": [ {
          "url": "http://hl7.org/fhir/StructureDefinition/data-absent-reason",
          "valueCode": "unknown"
        } ]
      }
    },
    "request": {
      "method": "POST",
      "url": "Condition",
      "ifNoneExist": "identifier=https://mein.krankenhaus.de/fhir/NamingSystem/conditionId|51fcf0f409044eebfc32bcd1420c8c013d7a8cbf42ce1042d31cb1c95114a3c0"
    }
  }, {
    "fullUrl": "Condition/52a3e9cb5ace536594639bd6951f15cc4b6c809cbdfc66f26159f67fd5a27c12",
    "resource": {
      "resourceType": "Condition",
      "meta": {
        "profile": [ "https://www.netzwerk-universitaetsmedizin.de/fhir/StructureDefinition/chronic-lung-diseases" ]
      },
      "identifier": [ {
        "system": "https://mein.krankenhaus.de/fhir/NamingSystem/conditionId",
        "value": "13cd70e634fcc897625dcc587cab44778fd01190a78b8b3ef2cee68d0802b2bf"
      } ],
      "verificationStatus": {
        "coding": [ {
          "system": "http://terminology.hl7.org/CodeSystem/condition-ver-status",
          "code": "refuted",
          "display": "Refuted"
        }, {
          "system": "http://snomed.info/sct",
          "code": "410594000",
          "display": "Definitely NOT present (qualifier value)"
        } ]
      },
      "category": [ {
        "coding": [ {
          "system": "http://snomed.info/sct",
          "code": "418112009",
          "display": "Pulmonary medicine (qualifier value)"
        } ]
      } ],
      "code": {
        "coding": [ {
          "system": "http://fhir.de/CodeSystem/dimdi/icd-10-gm",
          "version": "2021",
          "code": "J84.1"
        }, {
          "system": "http://snomed.info/sct",
          "code": "51615001"
        } ]
      },
      "subject": {
        "reference": "Patient/329772ee46b8fb52fbc8569d5c0d0636ec4a97f950a07b65dce87dfff260401e"
      },
      "encounter": {
        "reference": "Encounter/012d5fc79be7afddb721915fcfd2cf3f312fb138a6ce7ec051c34ef595ed9eb8"
      },
      "_recordedDate": {
        "extension": [ {
          "url": "http://hl7.org/fhir/StructureDefinition/data-absent-reason",
          "valueCode": "unknown"
        } ]
      }
    },
    "request": {
      "method": "POST",
      "url": "Condition",
      "ifNoneExist": "identifier=https://mein.krankenhaus.de/fhir/NamingSystem/conditionId|52a3e9cb5ace536594639bd6951f15cc4b6c809cbdfc66f26159f67fd5a27c12"
    }
  }, {
    "fullUrl": "Condition/2295e027d85349f4ee68300ff7df2b62b7976b2e7dcf7d8da1af8a3b461d7757",
    "resource": {
      "resourceType": "Condition",
      "meta": {
        "profile": [ "https://www.netzwerk-universitaetsmedizin.de/fhir/StructureDefinition/chronic-lung-diseases" ]
      },
      "identifier": [ {
        "system": "https://mein.krankenhaus.de/fhir/NamingSystem/conditionId",
        "value": "31e0d8f9dca37f6be3cd3ddb84ba9cea4ab62704f9eaecc34585b940cb1ea07a"
      } ],
      "clinicalStatus": {
        "coding": [ {
          "system": "http://terminology.hl7.org/CodeSystem/condition-clinical",
          "code": "active",
          "display": "Active"
        } ]
      },
      "verificationStatus": {
        "coding": [ {
          "system": "http://terminology.hl7.org/CodeSystem/condition-ver-status",
          "code": "confirmed",
          "display": "Confirmed"
        }, {
          "system": "http://snomed.info/sct",
          "code": "410605003",
          "display": "Confirmed present (qualifier value)"
        } ]
      },
      "category": [ {
        "coding": [ {
          "system": "http://snomed.info/sct",
          "code": "418112009",
          "display": "Pulmonary medicine (qualifier value)"
        } ]
      } ],
      "code": {
        "coding": [ {
          "system": "http://fhir.de/CodeSystem/dimdi/icd-10-gm",
          "version": "2021",
          "code": "I27.0"
        }, {
          "system": "http://snomed.info/sct",
          "code": "70995007"
        } ]
      },
      "subject": {
        "reference": "Patient/329772ee46b8fb52fbc8569d5c0d0636ec4a97f950a07b65dce87dfff260401e"
      },
      "encounter": {
        "reference": "Encounter/012d5fc79be7afddb721915fcfd2cf3f312fb138a6ce7ec051c34ef595ed9eb8"
      },
      "_recordedDate": {
        "extension": [ {
          "url": "http://hl7.org/fhir/StructureDefinition/data-absent-reason",
          "valueCode": "unknown"
        } ]
      }
    },
    "request": {
      "method": "POST",
      "url": "Condition",
      "ifNoneExist": "identifier=https://mein.krankenhaus.de/fhir/NamingSystem/conditionId|2295e027d85349f4ee68300ff7df2b62b7976b2e7dcf7d8da1af8a3b461d7757"
    }
  }, {
    "fullUrl": "Condition/8d52177c78e550d0852b464a4beac656a08b165c2147047b70e04552bbd561fb",
    "resource": {
      "resourceType": "Condition",
      "meta": {
        "profile": [ "https://www.netzwerk-universitaetsmedizin.de/fhir/StructureDefinition/chronic-lung-diseases" ]
      },
      "modifierExtension": [ {
        "url": "https://www.netzwerk-universitaetsmedizin.de/fhir/StructureDefinition/uncertainty-of-presence",
        "valueCodeableConcept": {
          "coding": [ {
            "system": "http://snomed.info/sct",
            "code": "261665006",
            "display": "Unknown (qualifier value)"
          } ],
          "text": "Presence unknown."
        }
      } ],
      "identifier": [ {
        "system": "https://mein.krankenhaus.de/fhir/NamingSystem/conditionId",
        "value": "8fe75b5d06287139f80ca6704ec2fce7b5b455413ae221e76f66e69408965947"
      } ],
      "category": [ {
        "coding": [ {
          "system": "http://snomed.info/sct",
          "code": "418112009",
          "display": "Pulmonary medicine (qualifier value)"
        } ]
      } ],
      "code": {
        "coding": [ {
          "system": "http://fhir.de/CodeSystem/dimdi/icd-10-gm",
          "version": "2021",
          "code": "E66.29"
        }, {
          "system": "http://snomed.info/sct",
          "code": "190966007"
        } ]
      },
      "subject": {
        "reference": "Patient/329772ee46b8fb52fbc8569d5c0d0636ec4a97f950a07b65dce87dfff260401e"
      },
      "encounter": {
        "reference": "Encounter/012d5fc79be7afddb721915fcfd2cf3f312fb138a6ce7ec051c34ef595ed9eb8"
      },
      "_recordedDate": {
        "extension": [ {
          "url": "http://hl7.org/fhir/StructureDefinition/data-absent-reason",
          "valueCode": "unknown"
        } ]
      }
    },
    "request": {
      "method": "POST",
      "url": "Condition",
      "ifNoneExist": "identifier=https://mein.krankenhaus.de/fhir/NamingSystem/conditionId|8d52177c78e550d0852b464a4beac656a08b165c2147047b70e04552bbd561fb"
    }
  }, {
    "fullUrl": "Condition/b2e3d5d8de334df2f7aa13ff2925f9da92f4a88b22c438be8b0915e66cf03092",
    "resource": {
      "resourceType": "Condition",
      "meta": {
        "profile": [ "https://www.netzwerk-universitaetsmedizin.de/fhir/StructureDefinition/chronic-lung-diseases" ]
      },
      "modifierExtension": [ {
        "url": "https://www.netzwerk-universitaetsmedizin.de/fhir/StructureDefinition/uncertainty-of-presence",
        "valueCodeableConcept": {
          "coding": [ {
            "system": "http://snomed.info/sct",
            "code": "261665006",
            "display": "Unknown (qualifier value)"
          } ],
          "text": "Presence unknown."
        }
      } ],
      "identifier": [ {
        "system": "https://mein.krankenhaus.de/fhir/NamingSystem/conditionId",
        "value": "6eec63188b71056eafc5b8b4d056987a703ae3f9f533662b7bba0c48fa5f4841"
      } ],
      "category": [ {
        "coding": [ {
          "system": "http://snomed.info/sct",
          "code": "418112009",
          "display": "Pulmonary medicine (qualifier value)"
        } ]
      } ],
      "code": {
        "coding": [ {
          "system": "http://fhir.de/CodeSystem/dimdi/icd-10-gm",
          "version": "2021",
          "code": "G47.3"
        }, {
          "system": "http://snomed.info/sct",
          "code": "73430006"
        } ]
      },
      "subject": {
        "reference": "Patient/329772ee46b8fb52fbc8569d5c0d0636ec4a97f950a07b65dce87dfff260401e"
      },
      "encounter": {
        "reference": "Encounter/012d5fc79be7afddb721915fcfd2cf3f312fb138a6ce7ec051c34ef595ed9eb8"
      },
      "_recordedDate": {
        "extension": [ {
          "url": "http://hl7.org/fhir/StructureDefinition/data-absent-reason",
          "valueCode": "unknown"
        } ]
      }
    },
    "request": {
      "method": "POST",
      "url": "Condition",
      "ifNoneExist": "identifier=https://mein.krankenhaus.de/fhir/NamingSystem/conditionId|b2e3d5d8de334df2f7aa13ff2925f9da92f4a88b22c438be8b0915e66cf03092"
    }
  }, {
    "fullUrl": "Condition/5eac4f6782a21dd6b2a9b6558324e3843050f66c75a78fe8fc130f5d2af744a1",
    "resource": {
      "resourceType": "Condition",
      "meta": {
        "profile": [ "https://www.netzwerk-universitaetsmedizin.de/fhir/StructureDefinition/chronic-lung-diseases" ]
      },
      "identifier": [ {
        "system": "https://mein.krankenhaus.de/fhir/NamingSystem/conditionId",
        "value": "887718882e67151531f8e9f05bc9f7e39a556363fa5edff86991ee17f7d54177"
      } ],
      "clinicalStatus": {
        "coding": [ {
          "system": "http://terminology.hl7.org/CodeSystem/condition-clinical",
          "code": "active",
          "display": "Active"
        } ]
      },
      "verificationStatus": {
        "coding": [ {
          "system": "http://terminology.hl7.org/CodeSystem/condition-ver-status",
          "code": "confirmed",
          "display": "Confirmed"
        }, {
          "system": "http://snomed.info/sct",
          "code": "410605003",
          "display": "Confirmed present (qualifier value)"
        } ]
      },
      "category": [ {
        "coding": [ {
          "system": "http://snomed.info/sct",
          "code": "418112009",
          "display": "Pulmonary medicine (qualifier value)"
        } ]
      } ],
      "code": {
        "coding": [ {
          "system": "http://fhir.de/CodeSystem/dimdi/icd-10-gm",
          "version": "2021",
          "code": "E84.9"
        }, {
          "system": "http://snomed.info/sct",
          "code": "190905008"
        } ]
      },
      "subject": {
        "reference": "Patient/329772ee46b8fb52fbc8569d5c0d0636ec4a97f950a07b65dce87dfff260401e"
      },
      "encounter": {
        "reference": "Encounter/012d5fc79be7afddb721915fcfd2cf3f312fb138a6ce7ec051c34ef595ed9eb8"
      },
      "_recordedDate": {
        "extension": [ {
          "url": "http://hl7.org/fhir/StructureDefinition/data-absent-reason",
          "valueCode": "unknown"
        } ]
      }
    },
    "request": {
      "method": "POST",
      "url": "Condition",
      "ifNoneExist": "identifier=https://mein.krankenhaus.de/fhir/NamingSystem/conditionId|5eac4f6782a21dd6b2a9b6558324e3843050f66c75a78fe8fc130f5d2af744a1"
    }
  }, {
    "fullUrl": "Condition/f5120c511a6ddf22e94a7cc77c99452871c599c4419c64b25033b6898afd678a",
    "resource": {
      "resourceType": "Condition",
      "meta": {
        "profile": [ "https://www.netzwerk-universitaetsmedizin.de/fhir/StructureDefinition/chronic-lung-diseases" ]
      },
      "identifier": [ {
        "system": "https://mein.krankenhaus.de/fhir/NamingSystem/conditionId",
        "value": "3ae48ba3e893201f80a6d138f6162d21d9923ee8195a0d19cfba8dbc5bc96d73"
      } ],
      "clinicalStatus": {
        "coding": [ {
          "system": "http://terminology.hl7.org/CodeSystem/condition-clinical",
          "code": "active",
          "display": "Active"
        } ]
      },
      "verificationStatus": {
        "coding": [ {
          "system": "http://terminology.hl7.org/CodeSystem/condition-ver-status",
          "code": "confirmed",
          "display": "Confirmed"
        }, {
          "system": "http://snomed.info/sct",
          "code": "410605003",
          "display": "Confirmed present (qualifier value)"
        } ]
      },
      "category": [ {
        "coding": [ {
          "system": "http://snomed.info/sct",
          "code": "418112009",
          "display": "Pulmonary medicine (qualifier value)"
        } ]
      } ],
      "code": {
        "coding": [ {
          "system": "http://snomed.info/sct",
          "code": "106048009"
        } ],
        "text": "<Freitext>"
      },
      "subject": {
        "reference": "Patient/329772ee46b8fb52fbc8569d5c0d0636ec4a97f950a07b65dce87dfff260401e"
      },
      "encounter": {
        "reference": "Encounter/012d5fc79be7afddb721915fcfd2cf3f312fb138a6ce7ec051c34ef595ed9eb8"
      },
      "_recordedDate": {
        "extension": [ {
          "url": "http://hl7.org/fhir/StructureDefinition/data-absent-reason",
          "valueCode": "unknown"
        } ]
      }
    },
    "request": {
      "method": "POST",
      "url": "Condition",
      "ifNoneExist": "identifier=https://mein.krankenhaus.de/fhir/NamingSystem/conditionId|f5120c511a6ddf22e94a7cc77c99452871c599c4419c64b25033b6898afd678a"
    }
  }, {
    "fullUrl": "Condition/56db5d46356f57320ec17006c94d57da85eb1b9f2ed0eeaa018d3bd5d71ffa44",
    "resource": {
      "resourceType": "Condition",
      "meta": {
        "profile": [ "https://www.netzwerk-universitaetsmedizin.de/fhir/StructureDefinition/human-immunodeficiency-virus-infection" ]
      },
      "identifier": [ {
        "system": "https://mein.krankenhaus.de/fhir/NamingSystem/conditionId",
        "value": "78279e47189cbed4e84b53354ec242dcc4c8901a5b384825e01e554937101766"
      } ],
      "verificationStatus": {
        "coding": [ {
          "system": "http://terminology.hl7.org/CodeSystem/condition-ver-status",
          "code": "refuted",
          "display": "Refuted"
        }, {
          "system": "http://snomed.info/sct",
          "code": "410594000",
          "display": "Definitely NOT present (qualifier value)"
        } ]
      },
      "category": [ {
        "coding": [ {
          "system": "http://snomed.info/sct",
          "code": "394807007",
          "display": "Infectious diseases (specialty) (qualifier value)"
        } ]
      } ],
      "code": {
        "coding": [ {
          "system": "http://fhir.de/CodeSystem/dimdi/icd-10-gm",
          "version": "2021",
          "code": "B24"
        }, {
          "system": "http://snomed.info/sct",
          "code": "86406008"
        } ]
      },
      "subject": {
        "reference": "Patient/329772ee46b8fb52fbc8569d5c0d0636ec4a97f950a07b65dce87dfff260401e"
      },
      "encounter": {
        "reference": "Encounter/012d5fc79be7afddb721915fcfd2cf3f312fb138a6ce7ec051c34ef595ed9eb8"
      },
      "_recordedDate": {
        "extension": [ {
          "url": "http://hl7.org/fhir/StructureDefinition/data-absent-reason",
          "valueCode": "unknown"
        } ]
      }
    },
    "request": {
      "method": "POST",
      "url": "Condition",
      "ifNoneExist": "identifier=https://mein.krankenhaus.de/fhir/NamingSystem/conditionId|56db5d46356f57320ec17006c94d57da85eb1b9f2ed0eeaa018d3bd5d71ffa44"
    }
  }, {
    "fullUrl": "Condition/f0b3f567b5327f568d24cd1ef0451682c39ab07e834961d0a38f1b896ae5d2c9",
    "resource": {
      "resourceType": "Condition",
      "meta": {
        "profile": [ "https://www.netzwerk-universitaetsmedizin.de/fhir/StructureDefinition/diabetes-mellitus" ]
      },
      "identifier": [ {
        "system": "https://mein.krankenhaus.de/fhir/NamingSystem/conditionId",
        "value": "b1d6c5aa309f06bde647569dd12fcf3888da5d6569ae915f18fcf1fde950175c"
      } ],
      "verificationStatus": {
        "coding": [ {
          "system": "http://terminology.hl7.org/CodeSystem/condition-ver-status",
          "code": "refuted",
          "display": "Refuted"
        }, {
          "system": "http://snomed.info/sct",
          "code": "410594000",
          "display": "Definitely NOT present (qualifier value)"
        } ]
      },
      "category": [ {
        "coding": [ {
          "system": "http://snomed.info/sct",
          "code": "408475000",
          "display": "Diabetic medicine (qualifier value)"
        } ]
      } ],
      "code": {
        "coding": [ {
          "system": "http://fhir.de/CodeSystem/dimdi/icd-10-gm",
          "version": "2021",
          "code": "E14"
        }, {
          "system": "http://snomed.info/sct",
          "code": "73211009"
        } ]
      },
      "subject": {
        "reference": "Patient/329772ee46b8fb52fbc8569d5c0d0636ec4a97f950a07b65dce87dfff260401e"
      },
      "encounter": {
        "reference": "Encounter/012d5fc79be7afddb721915fcfd2cf3f312fb138a6ce7ec051c34ef595ed9eb8"
      },
      "_recordedDate": {
        "extension": [ {
          "url": "http://hl7.org/fhir/StructureDefinition/data-absent-reason",
          "valueCode": "unknown"
        } ]
      }
    },
    "request": {
      "method": "POST",
      "url": "Condition",
      "ifNoneExist": "identifier=https://mein.krankenhaus.de/fhir/NamingSystem/conditionId|f0b3f567b5327f568d24cd1ef0451682c39ab07e834961d0a38f1b896ae5d2c9"
    }
  }, {
    "fullUrl": "Condition/2630642136bf46e11ad003a75eb2ed02b1c2b15f8e20e044a99123324d7bff26",
    "resource": {
      "resourceType": "Condition",
      "meta": {
        "profile": [ "https://www.netzwerk-universitaetsmedizin.de/fhir/StructureDefinition/malignant-neoplastic-disease" ]
      },
      "modifierExtension": [ {
        "url": "https://www.netzwerk-universitaetsmedizin.de/fhir/StructureDefinition/uncertainty-of-presence",
        "valueCodeableConcept": {
          "coding": [ {
            "system": "http://snomed.info/sct",
            "code": "261665006",
            "display": "Unknown (qualifier value)"
          } ],
          "text": "Presence unknown."
        }
      } ],
      "identifier": [ {
        "system": "https://mein.krankenhaus.de/fhir/NamingSystem/conditionId",
        "value": "b0dd6d74e10dc2486c7929777a2807261256b3887610225614514c98ee3efecd"
      } ],
      "category": [ {
        "coding": [ {
          "system": "http://snomed.info/sct",
          "code": "394593009",
          "display": "Medical oncology (qualifier value)"
        } ]
      } ],
      "code": {
        "coding": [ {
          "system": "http://fhir.de/CodeSystem/dimdi/icd-10-gm",
          "version": "2021",
          "code": "C80.9"
        }, {
          "system": "http://snomed.info/sct",
          "code": "363346000"
        } ]
      },
      "subject": {
        "reference": "Patient/329772ee46b8fb52fbc8569d5c0d0636ec4a97f950a07b65dce87dfff260401e"
      },
      "encounter": {
        "reference": "Encounter/012d5fc79be7afddb721915fcfd2cf3f312fb138a6ce7ec051c34ef595ed9eb8"
      },
      "_recordedDate": {
        "extension": [ {
          "url": "http://hl7.org/fhir/StructureDefinition/data-absent-reason",
          "valueCode": "unknown"
        } ]
      }
    },
    "request": {
      "method": "POST",
      "url": "Condition",
      "ifNoneExist": "identifier=https://mein.krankenhaus.de/fhir/NamingSystem/conditionId|2630642136bf46e11ad003a75eb2ed02b1c2b15f8e20e044a99123324d7bff26"
    }
  }, {
    "fullUrl": "Condition/63a9f8b114bb8aca85cfc336184cde280291261c6cb3834e7a49d4a37f420ef5",
    "resource": {
      "resourceType": "Condition",
      "meta": {
        "profile": [ "https://www.netzwerk-universitaetsmedizin.de/fhir/StructureDefinition/chronic-neurological-mental-diseases" ]
      },
      "modifierExtension": [ {
        "url": "https://www.netzwerk-universitaetsmedizin.de/fhir/StructureDefinition/uncertainty-of-presence",
        "valueCodeableConcept": {
          "coding": [ {
            "system": "http://snomed.info/sct",
            "code": "261665006",
            "display": "Unknown (qualifier value)"
          } ],
          "text": "Presence unknown."
        }
      } ],
      "identifier": [ {
        "system": "https://mein.krankenhaus.de/fhir/NamingSystem/conditionId",
        "value": "3d08340a51949457e03d001482595cf97e0449ac6ddc508df663426dd5fd2c44"
      } ],
      "category": [ {
        "coding": [ {
          "system": "http://snomed.info/sct",
          "code": "394591006",
          "display": "Neurology (qualifier value)"
        }, {
          "system": "http://snomed.info/sct",
          "code": "394587001",
          "display": "Psychiatry (qualifier value)"
        } ]
      } ],
      "code": {
        "coding": [ {
          "system": "http://fhir.de/CodeSystem/dimdi/icd-10-gm",
          "version": "2021",
          "code": "G20"
        }, {
          "system": "http://snomed.info/sct",
          "code": "49049000"
        } ]
      },
      "subject": {
        "reference": "Patient/329772ee46b8fb52fbc8569d5c0d0636ec4a97f950a07b65dce87dfff260401e"
      },
      "encounter": {
        "reference": "Encounter/012d5fc79be7afddb721915fcfd2cf3f312fb138a6ce7ec051c34ef595ed9eb8"
      },
      "_recordedDate": {
        "extension": [ {
          "url": "http://hl7.org/fhir/StructureDefinition/data-absent-reason",
          "valueCode": "unknown"
        } ]
      }
    },
    "request": {
      "method": "POST",
      "url": "Condition",
      "ifNoneExist": "identifier=https://mein.krankenhaus.de/fhir/NamingSystem/conditionId|63a9f8b114bb8aca85cfc336184cde280291261c6cb3834e7a49d4a37f420ef5"
    }
  }, {
    "fullUrl": "Condition/854da2f0e5da9f0d72db1b4611664810b11d4072e49e49ff4a7bb166af6577bf",
    "resource": {
      "resourceType": "Condition",
      "meta": {
        "profile": [ "https://www.netzwerk-universitaetsmedizin.de/fhir/StructureDefinition/chronic-neurological-mental-diseases" ]
      },
      "identifier": [ {
        "system": "https://mein.krankenhaus.de/fhir/NamingSystem/conditionId",
        "value": "a481936d4c6b65efe77950cd1eea773a474679c6c64024fe96b6ccb021d801ff"
      } ],
      "verificationStatus": {
        "coding": [ {
          "system": "http://terminology.hl7.org/CodeSystem/condition-ver-status",
          "code": "refuted",
          "display": "Refuted"
        }, {
          "system": "http://snomed.info/sct",
          "code": "410594000",
          "display": "Definitely NOT present (qualifier value)"
        } ]
      },
      "category": [ {
        "coding": [ {
          "system": "http://snomed.info/sct",
          "code": "394591006",
          "display": "Neurology (qualifier value)"
        }, {
          "system": "http://snomed.info/sct",
          "code": "394587001",
          "display": "Psychiatry (qualifier value)"
        } ]
      } ],
      "code": {
        "coding": [ {
          "system": "http://fhir.de/CodeSystem/dimdi/icd-10-gm",
          "version": "2021",
          "code": "F03"
        }, {
          "system": "http://snomed.info/sct",
          "code": "52448006"
        } ]
      },
      "subject": {
        "reference": "Patient/329772ee46b8fb52fbc8569d5c0d0636ec4a97f950a07b65dce87dfff260401e"
      },
      "encounter": {
        "reference": "Encounter/012d5fc79be7afddb721915fcfd2cf3f312fb138a6ce7ec051c34ef595ed9eb8"
      },
      "_recordedDate": {
        "extension": [ {
          "url": "http://hl7.org/fhir/StructureDefinition/data-absent-reason",
          "valueCode": "unknown"
        } ]
      }
    },
    "request": {
      "method": "POST",
      "url": "Condition",
      "ifNoneExist": "identifier=https://mein.krankenhaus.de/fhir/NamingSystem/conditionId|854da2f0e5da9f0d72db1b4611664810b11d4072e49e49ff4a7bb166af6577bf"
    }
  }, {
    "fullUrl": "Condition/0f2f6bd3f23c2a65c7823c1faccad023249d4b118609522dbd20e8dcbc6ff93a",
    "resource": {
      "resourceType": "Condition",
      "meta": {
        "profile": [ "https://www.netzwerk-universitaetsmedizin.de/fhir/StructureDefinition/chronic-neurological-mental-diseases" ]
      },
      "modifierExtension": [ {
        "url": "https://www.netzwerk-universitaetsmedizin.de/fhir/StructureDefinition/uncertainty-of-presence",
        "valueCodeableConcept": {
          "coding": [ {
            "system": "http://snomed.info/sct",
            "code": "261665006",
            "display": "Unknown (qualifier value)"
          } ],
          "text": "Presence unknown."
        }
      } ],
      "identifier": [ {
        "system": "https://mein.krankenhaus.de/fhir/NamingSystem/conditionId",
        "value": "092dfa914848c141239519ab1f6b72a88e2a8e115180749d7fb48e6073485f57"
      } ],
      "category": [ {
        "coding": [ {
          "system": "http://snomed.info/sct",
          "code": "394591006",
          "display": "Neurology (qualifier value)"
        }, {
          "system": "http://snomed.info/sct",
          "code": "394587001",
          "display": "Psychiatry (qualifier value)"
        } ]
      } ],
      "code": {
        "coding": [ {
          "system": "http://fhir.de/CodeSystem/dimdi/icd-10-gm",
          "version": "2021",
          "code": "G35"
        }, {
          "system": "http://snomed.info/sct",
          "code": "24700007"
        } ]
      },
      "subject": {
        "reference": "Patient/329772ee46b8fb52fbc8569d5c0d0636ec4a97f950a07b65dce87dfff260401e"
      },
      "encounter": {
        "reference": "Encounter/012d5fc79be7afddb721915fcfd2cf3f312fb138a6ce7ec051c34ef595ed9eb8"
      },
      "_recordedDate": {
        "extension": [ {
          "url": "http://hl7.org/fhir/StructureDefinition/data-absent-reason",
          "valueCode": "unknown"
        } ]
      }
    },
    "request": {
      "method": "POST",
      "url": "Condition",
      "ifNoneExist": "identifier=https://mein.krankenhaus.de/fhir/NamingSystem/conditionId|0f2f6bd3f23c2a65c7823c1faccad023249d4b118609522dbd20e8dcbc6ff93a"
    }
  }, {
    "fullUrl": "Condition/4d86bea44df06a2c9b136667f7206fe3a396e85635f7631e35b2bd66c3305155",
    "resource": {
      "resourceType": "Condition",
      "meta": {
        "profile": [ "https://www.netzwerk-universitaetsmedizin.de/fhir/StructureDefinition/chronic-neurological-mental-diseases" ]
      },
      "identifier": [ {
        "system": "https://mein.krankenhaus.de/fhir/NamingSystem/conditionId",
        "value": "f8cb03ced235be79f423e9eb20aee53b69ee17a814cb320caa1d1bf5af3261e4"
      } ],
      "verificationStatus": {
        "coding": [ {
          "system": "http://terminology.hl7.org/CodeSystem/condition-ver-status",
          "code": "refuted",
          "display": "Refuted"
        }, {
          "system": "http://snomed.info/sct",
          "code": "410594000",
          "display": "Definitely NOT present (qualifier value)"
        } ]
      },
      "category": [ {
        "coding": [ {
          "system": "http://snomed.info/sct",
          "code": "394591006",
          "display": "Neurology (qualifier value)"
        }, {
          "system": "http://snomed.info/sct",
          "code": "394587001",
          "display": "Psychiatry (qualifier value)"
        } ]
      } ],
      "code": {
        "coding": [ {
          "system": "http://fhir.de/CodeSystem/dimdi/icd-10-gm",
          "version": "2021",
          "code": "G70.9"
        }, {
          "system": "http://snomed.info/sct",
          "code": "257277002"
        } ]
      },
      "subject": {
        "reference": "Patient/329772ee46b8fb52fbc8569d5c0d0636ec4a97f950a07b65dce87dfff260401e"
      },
      "encounter": {
        "reference": "Encounter/012d5fc79be7afddb721915fcfd2cf3f312fb138a6ce7ec051c34ef595ed9eb8"
      },
      "_recordedDate": {
        "extension": [ {
          "url": "http://hl7.org/fhir/StructureDefinition/data-absent-reason",
          "valueCode": "unknown"
        } ]
      }
    },
    "request": {
      "method": "POST",
      "url": "Condition",
      "ifNoneExist": "identifier=https://mein.krankenhaus.de/fhir/NamingSystem/conditionId|4d86bea44df06a2c9b136667f7206fe3a396e85635f7631e35b2bd66c3305155"
    }
  }, {
    "fullUrl": "Condition/84bc932dab815a254d6f200d5cc85f2143fddf71eab5355c99d835002ee559a1",
    "resource": {
      "resourceType": "Condition",
      "meta": {
        "profile": [ "https://www.netzwerk-universitaetsmedizin.de/fhir/StructureDefinition/chronic-neurological-mental-diseases" ]
      },
      "identifier": [ {
        "system": "https://mein.krankenhaus.de/fhir/NamingSystem/conditionId",
        "value": "132b46f14871311f55abb45913736afa4789550092153330b2ddab53d65175a7"
      } ],
      "clinicalStatus": {
        "coding": [ {
          "system": "http://terminology.hl7.org/CodeSystem/condition-clinical",
          "code": "active",
          "display": "Active"
        } ]
      },
      "verificationStatus": {
        "coding": [ {
          "system": "http://terminology.hl7.org/CodeSystem/condition-ver-status",
          "code": "confirmed",
          "display": "Confirmed"
        }, {
          "system": "http://snomed.info/sct",
          "code": "410605003",
          "display": "Confirmed present (qualifier value)"
        } ]
      },
      "category": [ {
        "coding": [ {
          "system": "http://snomed.info/sct",
          "code": "394591006",
          "display": "Neurology (qualifier value)"
        }, {
          "system": "http://snomed.info/sct",
          "code": "394587001",
          "display": "Psychiatry (qualifier value)"
        } ]
      } ],
      "code": {
        "coding": [ {
          "system": "http://fhir.de/CodeSystem/dimdi/icd-10-gm",
          "version": "2021",
          "code": "G40.9"
        }, {
          "system": "http://snomed.info/sct",
          "code": "84757009"
        } ]
      },
      "subject": {
        "reference": "Patient/329772ee46b8fb52fbc8569d5c0d0636ec4a97f950a07b65dce87dfff260401e"
      },
      "encounter": {
        "reference": "Encounter/012d5fc79be7afddb721915fcfd2cf3f312fb138a6ce7ec051c34ef595ed9eb8"
      },
      "_recordedDate": {
        "extension": [ {
          "url": "http://hl7.org/fhir/StructureDefinition/data-absent-reason",
          "valueCode": "unknown"
        } ]
      }
    },
    "request": {
      "method": "POST",
      "url": "Condition",
      "ifNoneExist": "identifier=https://mein.krankenhaus.de/fhir/NamingSystem/conditionId|84bc932dab815a254d6f200d5cc85f2143fddf71eab5355c99d835002ee559a1"
    }
  }, {
    "fullUrl": "Condition/db7ad69d96b8de83102acda7457d454f38301ac15f2c6a75f7ab58e65d68fbcb",
    "resource": {
      "resourceType": "Condition",
      "meta": {
        "profile": [ "https://www.netzwerk-universitaetsmedizin.de/fhir/StructureDefinition/chronic-neurological-mental-diseases" ]
      },
      "modifierExtension": [ {
        "url": "https://www.netzwerk-universitaetsmedizin.de/fhir/StructureDefinition/uncertainty-of-presence",
        "valueCodeableConcept": {
          "coding": [ {
            "system": "http://snomed.info/sct",
            "code": "261665006",
            "display": "Unknown (qualifier value)"
          } ],
          "text": "Presence unknown."
        }
      } ],
      "identifier": [ {
        "system": "https://mein.krankenhaus.de/fhir/NamingSystem/conditionId",
        "value": "125acb17ebff900b4aef56262bb0b9d529c6a8fefd034cea3f9674c501b1945a"
      } ],
      "category": [ {
        "coding": [ {
          "system": "http://snomed.info/sct",
          "code": "394591006",
          "display": "Neurology (qualifier value)"
        }, {
          "system": "http://snomed.info/sct",
          "code": "394587001",
          "display": "Psychiatry (qualifier value)"
        } ]
      } ],
      "code": {
        "coding": [ {
          "system": "http://fhir.de/CodeSystem/dimdi/icd-10-gm",
          "version": "2021",
          "code": "I69.4"
        }, {
          "system": "http://snomed.info/sct",
          "code": "440140008"
        } ]
      },
      "subject": {
        "reference": "Patient/329772ee46b8fb52fbc8569d5c0d0636ec4a97f950a07b65dce87dfff260401e"
      },
      "encounter": {
        "reference": "Encounter/012d5fc79be7afddb721915fcfd2cf3f312fb138a6ce7ec051c34ef595ed9eb8"
      },
      "_recordedDate": {
        "extension": [ {
          "url": "http://hl7.org/fhir/StructureDefinition/data-absent-reason",
          "valueCode": "unknown"
        } ]
      }
    },
    "request": {
      "method": "POST",
      "url": "Condition",
      "ifNoneExist": "identifier=https://mein.krankenhaus.de/fhir/NamingSystem/conditionId|db7ad69d96b8de83102acda7457d454f38301ac15f2c6a75f7ab58e65d68fbcb"
    }
  }, {
    "fullUrl": "Condition/da8cfc705cb398d679ea905857eefd6f640318ddcbc1514621c6792fdc8a7f80",
    "resource": {
      "resourceType": "Condition",
      "meta": {
        "profile": [ "https://www.netzwerk-universitaetsmedizin.de/fhir/StructureDefinition/chronic-neurological-mental-diseases" ]
      },
      "modifierExtension": [ {
        "url": "https://www.netzwerk-universitaetsmedizin.de/fhir/StructureDefinition/uncertainty-of-presence",
        "valueCodeableConcept": {
          "coding": [ {
            "system": "http://snomed.info/sct",
            "code": "261665006",
            "display": "Unknown (qualifier value)"
          } ],
          "text": "Presence unknown."
        }
      } ],
      "identifier": [ {
        "system": "https://mein.krankenhaus.de/fhir/NamingSystem/conditionId",
        "value": "7755ca61c7676020e8f68ef70c1e1cb5276ee9551f33d16cb8c18e035e984f6b"
      } ],
      "category": [ {
        "coding": [ {
          "system": "http://snomed.info/sct",
          "code": "394591006",
          "display": "Neurology (qualifier value)"
        }, {
          "system": "http://snomed.info/sct",
          "code": "394587001",
          "display": "Psychiatry (qualifier value)"
        } ]
      } ],
      "code": {
        "coding": [ {
          "system": "http://fhir.de/CodeSystem/dimdi/icd-10-gm",
          "version": "2021",
          "code": "Z86.7"
        }, {
          "system": "http://snomed.info/sct",
          "code": "429993008"
        } ]
      },
      "subject": {
        "reference": "Patient/329772ee46b8fb52fbc8569d5c0d0636ec4a97f950a07b65dce87dfff260401e"
      },
      "encounter": {
        "reference": "Encounter/012d5fc79be7afddb721915fcfd2cf3f312fb138a6ce7ec051c34ef595ed9eb8"
      },
      "_recordedDate": {
        "extension": [ {
          "url": "http://hl7.org/fhir/StructureDefinition/data-absent-reason",
          "valueCode": "unknown"
        } ]
      }
    },
    "request": {
      "method": "POST",
      "url": "Condition",
      "ifNoneExist": "identifier=https://mein.krankenhaus.de/fhir/NamingSystem/conditionId|da8cfc705cb398d679ea905857eefd6f640318ddcbc1514621c6792fdc8a7f80"
    }
  }, {
    "fullUrl": "Condition/044e750e9652a3ffbf79ff7bf89b269608867a3fab080e050ba8054623eb064f",
    "resource": {
      "resourceType": "Condition",
      "meta": {
        "profile": [ "https://www.netzwerk-universitaetsmedizin.de/fhir/StructureDefinition/chronic-neurological-mental-diseases" ]
      },
      "identifier": [ {
        "system": "https://mein.krankenhaus.de/fhir/NamingSystem/conditionId",
        "value": "6e5a41d2d27364be11da59ede04f4d21468316a1ee60132dd7bf2d716845f48a"
      } ],
      "verificationStatus": {
        "coding": [ {
          "system": "http://terminology.hl7.org/CodeSystem/condition-ver-status",
          "code": "refuted",
          "display": "Refuted"
        }, {
          "system": "http://snomed.info/sct",
          "code": "410594000",
          "display": "Definitely NOT present (qualifier value)"
        } ]
      },
      "category": [ {
        "coding": [ {
          "system": "http://snomed.info/sct",
          "code": "394591006",
          "display": "Neurology (qualifier value)"
        }, {
          "system": "http://snomed.info/sct",
          "code": "394587001",
          "display": "Psychiatry (qualifier value)"
        } ]
      } ],
      "code": {
        "coding": [ {
          "system": "http://fhir.de/CodeSystem/dimdi/icd-10-gm",
          "version": "2021",
          "code": "F29"
        }, {
          "system": "http://snomed.info/sct",
          "code": "69322001"
        } ]
      },
      "subject": {
        "reference": "Patient/329772ee46b8fb52fbc8569d5c0d0636ec4a97f950a07b65dce87dfff260401e"
      },
      "encounter": {
        "reference": "Encounter/012d5fc79be7afddb721915fcfd2cf3f312fb138a6ce7ec051c34ef595ed9eb8"
      },
      "_recordedDate": {
        "extension": [ {
          "url": "http://hl7.org/fhir/StructureDefinition/data-absent-reason",
          "valueCode": "unknown"
        } ]
      }
    },
    "request": {
      "method": "POST",
      "url": "Condition",
      "ifNoneExist": "identifier=https://mein.krankenhaus.de/fhir/NamingSystem/conditionId|044e750e9652a3ffbf79ff7bf89b269608867a3fab080e050ba8054623eb064f"
    }
  }, {
    "fullUrl": "Condition/ff806c602452023af05dbaf44e36cb69737846a731abf97f1489e745c08c599c",
    "resource": {
      "resourceType": "Condition",
      "meta": {
        "profile": [ "https://www.netzwerk-universitaetsmedizin.de/fhir/StructureDefinition/chronic-neurological-mental-diseases" ]
      },
      "identifier": [ {
        "system": "https://mein.krankenhaus.de/fhir/NamingSystem/conditionId",
        "value": "4254d52403adae09a8b6272b5fcfee82b85d8eceb0496a54c7959143937252b2"
      } ],
      "verificationStatus": {
        "coding": [ {
          "system": "http://terminology.hl7.org/CodeSystem/condition-ver-status",
          "code": "refuted",
          "display": "Refuted"
        }, {
          "system": "http://snomed.info/sct",
          "code": "410594000",
          "display": "Definitely NOT present (qualifier value)"
        } ]
      },
      "category": [ {
        "coding": [ {
          "system": "http://snomed.info/sct",
          "code": "394591006",
          "display": "Neurology (qualifier value)"
        }, {
          "system": "http://snomed.info/sct",
          "code": "394587001",
          "display": "Psychiatry (qualifier value)"
        } ]
      } ],
      "code": {
        "coding": [ {
          "system": "http://fhir.de/CodeSystem/dimdi/icd-10-gm",
          "version": "2021",
          "code": "F32.9"
        }, {
          "system": "http://snomed.info/sct",
          "code": "35489007"
        } ]
      },
      "subject": {
        "reference": "Patient/329772ee46b8fb52fbc8569d5c0d0636ec4a97f950a07b65dce87dfff260401e"
      },
      "encounter": {
        "reference": "Encounter/012d5fc79be7afddb721915fcfd2cf3f312fb138a6ce7ec051c34ef595ed9eb8"
      },
      "_recordedDate": {
        "extension": [ {
          "url": "http://hl7.org/fhir/StructureDefinition/data-absent-reason",
          "valueCode": "unknown"
        } ]
      }
    },
    "request": {
      "method": "POST",
      "url": "Condition",
      "ifNoneExist": "identifier=https://mein.krankenhaus.de/fhir/NamingSystem/conditionId|ff806c602452023af05dbaf44e36cb69737846a731abf97f1489e745c08c599c"
    }
  }, {
    "fullUrl": "Condition/f08106f71e98bc6e33e7f5a1a1788637295b97b988761b7f3a1d28657c0b2fa9",
    "resource": {
      "resourceType": "Condition",
      "meta": {
        "profile": [ "https://www.netzwerk-universitaetsmedizin.de/fhir/StructureDefinition/chronic-neurological-mental-diseases" ]
      },
      "identifier": [ {
        "system": "https://mein.krankenhaus.de/fhir/NamingSystem/conditionId",
        "value": "0661f678664a8eddbed33f8e6c437353cc882dc843f4c4a032ddcb53f611f95a"
      } ],
      "clinicalStatus": {
        "coding": [ {
          "system": "http://terminology.hl7.org/CodeSystem/condition-clinical",
          "code": "active",
          "display": "Active"
        } ]
      },
      "verificationStatus": {
        "coding": [ {
          "system": "http://terminology.hl7.org/CodeSystem/condition-ver-status",
          "code": "confirmed",
          "display": "Confirmed"
        }, {
          "system": "http://snomed.info/sct",
          "code": "410605003",
          "display": "Confirmed present (qualifier value)"
        } ]
      },
      "category": [ {
        "coding": [ {
          "system": "http://snomed.info/sct",
          "code": "394591006",
          "display": "Neurology (qualifier value)"
        }, {
          "system": "http://snomed.info/sct",
          "code": "394587001",
          "display": "Psychiatry (qualifier value)"
        } ]
      } ],
      "code": {
        "coding": [ {
          "system": "http://fhir.de/CodeSystem/dimdi/icd-10-gm",
          "version": "2021",
          "code": "F41.9"
        }, {
          "system": "http://snomed.info/sct",
          "code": "197480006"
        } ]
      },
      "subject": {
        "reference": "Patient/329772ee46b8fb52fbc8569d5c0d0636ec4a97f950a07b65dce87dfff260401e"
      },
      "encounter": {
        "reference": "Encounter/012d5fc79be7afddb721915fcfd2cf3f312fb138a6ce7ec051c34ef595ed9eb8"
      },
      "_recordedDate": {
        "extension": [ {
          "url": "http://hl7.org/fhir/StructureDefinition/data-absent-reason",
          "valueCode": "unknown"
        } ]
      }
    },
    "request": {
      "method": "POST",
      "url": "Condition",
      "ifNoneExist": "identifier=https://mein.krankenhaus.de/fhir/NamingSystem/conditionId|f08106f71e98bc6e33e7f5a1a1788637295b97b988761b7f3a1d28657c0b2fa9"
    }
  }, {
    "fullUrl": "Condition/6c2e15ed82d7d0361b02a86d0dc283e6a5a5bba320eb46478374de22be77f01b",
    "resource": {
      "resourceType": "Condition",
      "meta": {
        "profile": [ "https://www.netzwerk-universitaetsmedizin.de/fhir/StructureDefinition/gastrointestinal-ulcers" ]
      },
      "identifier": [ {
        "system": "https://mein.krankenhaus.de/fhir/NamingSystem/conditionId",
        "value": "4e0d312ecb6a90acb7ee476d8b079b2227a8afa5a9a6978c28ac920e9f2522a6"
      } ],
      "verificationStatus": {
        "coding": [ {
          "system": "http://terminology.hl7.org/CodeSystem/condition-ver-status",
          "code": "refuted",
          "display": "Refuted"
        }, {
          "system": "http://snomed.info/sct",
          "code": "410594000",
          "display": "Definitely NOT present (qualifier value)"
        } ]
      },
      "category": [ {
        "coding": [ {
          "system": "http://snomed.info/sct",
          "code": "394584008",
          "display": "Gastroenterology (qualifier value))"
        } ]
      } ],
      "code": {
        "coding": [ {
          "system": "http://fhir.de/CodeSystem/dimdi/icd-10-gm",
          "version": "2021",
          "code": "K28"
        }, {
          "system": "http://snomed.info/sct",
          "code": "40845000"
        } ]
      },
      "subject": {
        "reference": "Patient/329772ee46b8fb52fbc8569d5c0d0636ec4a97f950a07b65dce87dfff260401e"
      },
      "encounter": {
        "reference": "Encounter/012d5fc79be7afddb721915fcfd2cf3f312fb138a6ce7ec051c34ef595ed9eb8"
      },
      "_recordedDate": {
        "extension": [ {
          "url": "http://hl7.org/fhir/StructureDefinition/data-absent-reason",
          "valueCode": "unknown"
        } ]
      }
    },
    "request": {
      "method": "POST",
      "url": "Condition",
      "ifNoneExist": "identifier=https://mein.krankenhaus.de/fhir/NamingSystem/conditionId|6c2e15ed82d7d0361b02a86d0dc283e6a5a5bba320eb46478374de22be77f01b"
    }
  }, {
    "fullUrl": "Observation/f5a822e52c2b586fc1ba0b52b7a69151cccb097d2663a67e6207d6e735b4a07a",
    "resource": {
      "resourceType": "Observation",
      "meta": {
        "profile": [ "https://www.netzwerk-universitaetsmedizin.de/fhir/StructureDefinition/smoking-status" ]
      },
      "identifier": [ {
        "system": "https://mein.krankenhaus.de/fhir/NamingSystem/observationId",
        "value": "126b5a64c4bd34d775d0d480665f2bb5c84104e675baf32a0a66de162f5e20ba"
      } ],
      "status": "final",
      "category": [ {
        "coding": [ {
          "system": "http://terminology.hl7.org/CodeSystem/observation-category",
          "code": "social-history",
          "display": "Social History"
        } ]
      } ],
      "code": {
        "coding": [ {
          "system": "http://loinc.org",
          "code": "72166-2"
        } ]
      },
      "subject": {
        "reference": "Patient/329772ee46b8fb52fbc8569d5c0d0636ec4a97f950a07b65dce87dfff260401e"
      },
      "encounter": {
        "reference": "Encounter/012d5fc79be7afddb721915fcfd2cf3f312fb138a6ce7ec051c34ef595ed9eb8"
      },
      "_effectiveDateTime": {
        "extension": [ {
          "url": "http://hl7.org/fhir/StructureDefinition/data-absent-reason",
          "valueCode": "unknown"
        } ]
      },
      "valueCodeableConcept": {
        "coding": [ {
          "system": "http://loinc.org",
          "code": "LA18976-3"
        } ]
      }
    },
    "request": {
      "method": "POST",
      "url": "Observation",
      "ifNoneExist": "identifier=https://mein.krankenhaus.de/fhir/NamingSystem/observationId|f5a822e52c2b586fc1ba0b52b7a69151cccb097d2663a67e6207d6e735b4a07a"
    }
  }, {
    "fullUrl": "Observation/d895b783269a294775fd8775648f0380fe72ee7c5ef7077a86234520ad42c880",
    "resource": {
      "resourceType": "Observation",
      "meta": {
        "profile": [ "https://www.netzwerk-universitaetsmedizin.de/fhir/StructureDefinition/history-of-travel" ]
      },
      "identifier": [ {
        "type": {
          "coding": [ {
            "system": "http://terminology.hl7.org/CodeSystem/v2-0203",
            "code": "OBI",
            "display": "Observation Instance Identifier"
          } ]
        },
        "system": "https://mein.krankenhaus.de/fhir/NamingSystem/observationId",
        "value": "6d4118ad5d98163abf5698184923e4dd3360e9015bf8f09436daf7ac3bdd3864",
        "assigner": {
          "reference": "Organization/3a4f3433bce81181bad2d8e0b8fafccf7dc800bc06f29be73dcb38b750a48f9a"
        }
      } ],
      "status": "final",
      "category": [ {
        "coding": [ {
          "system": "http://terminology.hl7.org/CodeSystem/observation-category",
          "code": "social-history",
          "display": "Social History"
        } ]
      } ],
      "code": {
        "coding": [ {
          "system": "http://loinc.org",
          "code": "8691-8"
        }, {
          "system": "http://snomed.info/sct",
          "code": "443846001"
        } ],
        "text": "History of Travel"
      },
      "subject": {
        "reference": "Patient/329772ee46b8fb52fbc8569d5c0d0636ec4a97f950a07b65dce87dfff260401e"
      },
      "encounter": {
        "reference": "Encounter/012d5fc79be7afddb721915fcfd2cf3f312fb138a6ce7ec051c34ef595ed9eb8"
      },
      "_effectiveDateTime": {
        "extension": [ {
          "url": "http://hl7.org/fhir/StructureDefinition/data-absent-reason",
          "valueCode": "unknown"
        } ]
      },
      "valueCodeableConcept": {
        "coding": [ {
          "system": "http://snomed.info/sct",
          "code": "373066001"
        } ]
      },
      "component": [ {
        "code": {
          "coding": [ {
            "system": "http://loinc.org",
            "code": "82752-7",
            "display": "Date travel started"
          } ],
          "text": "Travel start date"
        },
        "valueDateTime": "2020-04-03"
      }, {
        "code": {
          "coding": [ {
            "system": "http://loinc.org",
            "code": "91560-3",
            "display": "Date of departure from travel destination"
          } ],
          "text": "Travel end date"
        },
        "valueDateTime": "2020-04-01"
      }, {
        "code": {
          "coding": [ {
            "system": "http://loinc.org",
            "code": "94651-7",
            "display": "Country of travel"
          } ],
          "text": "Country of travel"
        },
        "valueCodeableConcept": {
          "coding": [ {
            "system": "urn:iso:std:iso:3166",
            "code": "GT",
            "display": "Guatemala"
          } ],
          "text": "Guatemala"
        }
      } ]
    },
    "request": {
      "method": "POST",
      "url": "Observation",
      "ifNoneExist": "identifier=https://mein.krankenhaus.de/fhir/NamingSystem/observationId|d895b783269a294775fd8775648f0380fe72ee7c5ef7077a86234520ad42c880"
    }
  }, {
    "fullUrl": "Observation/f86ef13d7c84126a736f0f6798e4dae02eb3da440a2e166e9f7845e427b7d779",
    "resource": {
      "resourceType": "Observation",
      "meta": {
        "profile": [ "https://www.netzwerk-universitaetsmedizin.de/fhir/StructureDefinition/history-of-travel" ]
      },
      "identifier": [ {
        "type": {
          "coding": [ {
            "system": "http://terminology.hl7.org/CodeSystem/v2-0203",
            "code": "OBI",
            "display": "Observation Instance Identifier"
          } ]
        },
        "system": "https://mein.krankenhaus.de/fhir/NamingSystem/observationId",
        "value": "73bc409a985205f39cfc94150a9055449860bd006b0c94ea363e83effa1575dc",
        "assigner": {
          "reference": "Organization/3a4f3433bce81181bad2d8e0b8fafccf7dc800bc06f29be73dcb38b750a48f9a"
        }
      } ],
      "status": "final",
      "category": [ {
        "coding": [ {
          "system": "http://terminology.hl7.org/CodeSystem/observation-category",
          "code": "social-history",
          "display": "Social History"
        } ]
      } ],
      "code": {
        "coding": [ {
          "system": "http://loinc.org",
          "code": "8691-8"
        }, {
          "system": "http://snomed.info/sct",
          "code": "443846001"
        } ],
        "text": "History of Travel"
      },
      "subject": {
        "reference": "Patient/329772ee46b8fb52fbc8569d5c0d0636ec4a97f950a07b65dce87dfff260401e"
      },
      "encounter": {
        "reference": "Encounter/012d5fc79be7afddb721915fcfd2cf3f312fb138a6ce7ec051c34ef595ed9eb8"
      },
      "_effectiveDateTime": {
        "extension": [ {
          "url": "http://hl7.org/fhir/StructureDefinition/data-absent-reason",
          "valueCode": "unknown"
        } ]
      },
      "valueCodeableConcept": {
        "coding": [ {
          "system": "http://snomed.info/sct",
          "code": "373066001"
        } ]
      },
      "component": [ {
        "code": {
          "coding": [ {
            "system": "http://loinc.org",
            "code": "82752-7",
            "display": "Date travel started"
          } ],
          "text": "Travel start date"
        },
        "valueDateTime": "2020-02-10"
      }, {
        "code": {
          "coding": [ {
            "system": "http://loinc.org",
            "code": "91560-3",
            "display": "Date of departure from travel destination"
          } ],
          "text": "Travel end date"
        },
        "valueDateTime": "2020-08-29"
      }, {
        "code": {
          "coding": [ {
            "system": "http://loinc.org",
            "code": "94651-7",
            "display": "Country of travel"
          } ],
          "text": "Country of travel"
        },
        "valueCodeableConcept": {
          "coding": [ {
            "system": "urn:iso:std:iso:3166",
            "code": "EH",
            "display": "Western Sahara"
          } ],
          "text": "Western Sahara"
        }
      } ]
    },
    "request": {
      "method": "POST",
      "url": "Observation",
      "ifNoneExist": "identifier=https://mein.krankenhaus.de/fhir/NamingSystem/observationId|f86ef13d7c84126a736f0f6798e4dae02eb3da440a2e166e9f7845e427b7d779"
    }
  }, {
    "fullUrl": "Observation/387a553b58faf872ff78ed58dbe630e5e2db53637797748dde85de7aa2a5e2cb",
    "resource": {
      "resourceType": "Observation",
      "meta": {
        "profile": [ "https://www.netzwerk-universitaetsmedizin.de/fhir/StructureDefinition/history-of-travel" ]
      },
      "identifier": [ {
        "type": {
          "coding": [ {
            "system": "http://terminology.hl7.org/CodeSystem/v2-0203",
            "code": "OBI",
            "display": "Observation Instance Identifier"
          } ]
        },
        "system": "https://mein.krankenhaus.de/fhir/NamingSystem/observationId",
        "value": "ebe77debf6c74c97e9e91750f04913d0d89cb9e970f8d9d77c3af98b99e25195",
        "assigner": {
          "reference": "Organization/3a4f3433bce81181bad2d8e0b8fafccf7dc800bc06f29be73dcb38b750a48f9a"
        }
      } ],
      "status": "final",
      "category": [ {
        "coding": [ {
          "system": "http://terminology.hl7.org/CodeSystem/observation-category",
          "code": "social-history",
          "display": "Social History"
        } ]
      } ],
      "code": {
        "coding": [ {
          "system": "http://loinc.org",
          "code": "8691-8"
        }, {
          "system": "http://snomed.info/sct",
          "code": "443846001"
        } ],
        "text": "History of Travel"
      },
      "subject": {
        "reference": "Patient/329772ee46b8fb52fbc8569d5c0d0636ec4a97f950a07b65dce87dfff260401e"
      },
      "encounter": {
        "reference": "Encounter/012d5fc79be7afddb721915fcfd2cf3f312fb138a6ce7ec051c34ef595ed9eb8"
      },
      "_effectiveDateTime": {
        "extension": [ {
          "url": "http://hl7.org/fhir/StructureDefinition/data-absent-reason",
          "valueCode": "unknown"
        } ]
      },
      "valueCodeableConcept": {
        "coding": [ {
          "system": "http://snomed.info/sct",
          "code": "373066001"
        } ]
      },
      "component": [ {
        "code": {
          "coding": [ {
            "system": "http://loinc.org",
            "code": "82752-7",
            "display": "Date travel started"
          } ],
          "text": "Travel start date"
        },
        "valueDateTime": "2020-10-13"
      }, {
        "code": {
          "coding": [ {
            "system": "http://loinc.org",
            "code": "91560-3",
            "display": "Date of departure from travel destination"
          } ],
          "text": "Travel end date"
        },
        "valueDateTime": "2020-09-17"
      }, {
        "code": {
          "coding": [ {
            "system": "http://loinc.org",
            "code": "94651-7",
            "display": "Country of travel"
          } ],
          "text": "Country of travel"
        },
        "valueCodeableConcept": {
          "coding": [ {
            "system": "urn:iso:std:iso:3166",
            "code": "ES",
            "display": "Spain"
          } ],
          "text": "Spain"
        }
      } ]
    },
    "request": {
      "method": "POST",
      "url": "Observation",
      "ifNoneExist": "identifier=https://mein.krankenhaus.de/fhir/NamingSystem/observationId|387a553b58faf872ff78ed58dbe630e5e2db53637797748dde85de7aa2a5e2cb"
    }
  }, {
    "fullUrl": "Observation/ec3fcc7ccd13dd83ff2605845cb5e107fd01a6b2ed382ac614700a65d57c8d1a",
    "resource": {
      "resourceType": "Observation",
      "meta": {
        "profile": [ "https://www.netzwerk-universitaetsmedizin.de/fhir/StructureDefinition/history-of-travel" ]
      },
      "identifier": [ {
        "type": {
          "coding": [ {
            "system": "http://terminology.hl7.org/CodeSystem/v2-0203",
            "code": "OBI",
            "display": "Observation Instance Identifier"
          } ]
        },
        "system": "https://mein.krankenhaus.de/fhir/NamingSystem/observationId",
        "value": "690933d95a7d526fb8c7cfc35705b70ae614f1ff09aa817aedfb5ad6ad881147",
        "assigner": {
          "reference": "Organization/3a4f3433bce81181bad2d8e0b8fafccf7dc800bc06f29be73dcb38b750a48f9a"
        }
      } ],
      "status": "final",
      "category": [ {
        "coding": [ {
          "system": "http://terminology.hl7.org/CodeSystem/observation-category",
          "code": "social-history",
          "display": "Social History"
        } ]
      } ],
      "code": {
        "coding": [ {
          "system": "http://loinc.org",
          "code": "8691-8"
        }, {
          "system": "http://snomed.info/sct",
          "code": "443846001"
        } ],
        "text": "History of Travel"
      },
      "subject": {
        "reference": "Patient/329772ee46b8fb52fbc8569d5c0d0636ec4a97f950a07b65dce87dfff260401e"
      },
      "encounter": {
        "reference": "Encounter/012d5fc79be7afddb721915fcfd2cf3f312fb138a6ce7ec051c34ef595ed9eb8"
      },
      "_effectiveDateTime": {
        "extension": [ {
          "url": "http://hl7.org/fhir/StructureDefinition/data-absent-reason",
          "valueCode": "unknown"
        } ]
      },
      "valueCodeableConcept": {
        "coding": [ {
          "system": "http://snomed.info/sct",
          "code": "373066001"
        } ]
      },
      "component": [ {
        "code": {
          "coding": [ {
            "system": "http://loinc.org",
            "code": "82752-7",
            "display": "Date travel started"
          } ],
          "text": "Travel start date"
        },
        "valueDateTime": "2020-12-11"
      }, {
        "code": {
          "coding": [ {
            "system": "http://loinc.org",
            "code": "91560-3",
            "display": "Date of departure from travel destination"
          } ],
          "text": "Travel end date"
        },
        "valueDateTime": "2020-09-23"
      }, {
        "code": {
          "coding": [ {
            "system": "http://loinc.org",
            "code": "94651-7",
            "display": "Country of travel"
          } ],
          "text": "Country of travel"
        },
        "valueCodeableConcept": {
          "coding": [ {
            "system": "urn:iso:std:iso:3166",
            "code": "GI",
            "display": "Gibraltar"
          } ],
          "text": "Gibraltar"
        }
      } ]
    },
    "request": {
      "method": "POST",
      "url": "Observation",
      "ifNoneExist": "identifier=https://mein.krankenhaus.de/fhir/NamingSystem/observationId|ec3fcc7ccd13dd83ff2605845cb5e107fd01a6b2ed382ac614700a65d57c8d1a"
    }
  }, {
    "fullUrl": "Observation/5929e4a964a4b9317f7b197c31ad7358294b11fe5abfb44d550162dfb9971ae9",
    "resource": {
      "resourceType": "Observation",
      "meta": {
        "profile": [ "https://www.netzwerk-universitaetsmedizin.de/fhir/StructureDefinition/history-of-travel" ]
      },
      "identifier": [ {
        "type": {
          "coding": [ {
            "system": "http://terminology.hl7.org/CodeSystem/v2-0203",
            "code": "OBI",
            "display": "Observation Instance Identifier"
          } ]
        },
        "system": "https://mein.krankenhaus.de/fhir/NamingSystem/observationId",
        "value": "560e0858dfe8f847d9d59966569e20e6c97597f152c548d89895ca7e5ae66409",
        "assigner": {
          "reference": "Organization/3a4f3433bce81181bad2d8e0b8fafccf7dc800bc06f29be73dcb38b750a48f9a"
        }
      } ],
      "status": "final",
      "category": [ {
        "coding": [ {
          "system": "http://terminology.hl7.org/CodeSystem/observation-category",
          "code": "social-history",
          "display": "Social History"
        } ]
      } ],
      "code": {
        "coding": [ {
          "system": "http://loinc.org",
          "code": "8691-8"
        }, {
          "system": "http://snomed.info/sct",
          "code": "443846001"
        } ],
        "text": "History of Travel"
      },
      "subject": {
        "reference": "Patient/329772ee46b8fb52fbc8569d5c0d0636ec4a97f950a07b65dce87dfff260401e"
      },
      "encounter": {
        "reference": "Encounter/012d5fc79be7afddb721915fcfd2cf3f312fb138a6ce7ec051c34ef595ed9eb8"
      },
      "_effectiveDateTime": {
        "extension": [ {
          "url": "http://hl7.org/fhir/StructureDefinition/data-absent-reason",
          "valueCode": "unknown"
        } ]
      },
      "valueCodeableConcept": {
        "coding": [ {
          "system": "http://snomed.info/sct",
          "code": "373066001"
        } ]
      },
      "component": [ {
        "code": {
          "coding": [ {
            "system": "http://loinc.org",
            "code": "82752-7",
            "display": "Date travel started"
          } ],
          "text": "Travel start date"
        },
        "valueDateTime": "2020-05-15"
      }, {
        "code": {
          "coding": [ {
            "system": "http://loinc.org",
            "code": "91560-3",
            "display": "Date of departure from travel destination"
          } ],
          "text": "Travel end date"
        },
        "valueDateTime": "2020-10-27"
      } ]
    },
    "request": {
      "method": "POST",
      "url": "Observation",
      "ifNoneExist": "identifier=https://mein.krankenhaus.de/fhir/NamingSystem/observationId|5929e4a964a4b9317f7b197c31ad7358294b11fe5abfb44d550162dfb9971ae9"
    }
  }, {
    "fullUrl": "Procedure/805b2567451225dfb8bcf1c0908cd421158200f0a148bfd737e29bf8b397222e",
    "resource": {
      "resourceType": "Procedure",
      "meta": {
        "profile": [ "https://www.netzwerk-universitaetsmedizin.de/fhir/StructureDefinition/respiratory-therapies" ]
      },
      "identifier": [ {
        "system": "https://mein.krankenhaus.de/fhir/NamingSystem/procedureId",
        "value": "c1667339f744b31b24910734fcd076534a4bfd59b90444104e90ec8732e32333"
      } ],
      "status": "not-done",
      "category": {
        "coding": [ {
          "system": "http://snomed.info/sct",
          "code": "277132007",
          "display": "Therapeutic procedure (procedure)"
        } ]
      },
      "code": {
        "coding": [ {
          "system": "http://snomed.info/sct",
          "code": "53950000"
        } ]
      },
      "subject": {
        "reference": "Patient/329772ee46b8fb52fbc8569d5c0d0636ec4a97f950a07b65dce87dfff260401e"
      },
      "encounter": {
        "reference": "Encounter/012d5fc79be7afddb721915fcfd2cf3f312fb138a6ce7ec051c34ef595ed9eb8"
      },
      "_performedDateTime": {
        "extension": [ {
          "url": "http://hl7.org/fhir/StructureDefinition/data-absent-reason",
          "valueCode": "unknown"
        } ]
      }
    },
    "request": {
      "method": "POST",
      "url": "Procedure",
      "ifNoneExist": "identifier=https://mein.krankenhaus.de/fhir/NamingSystem/procedureId|805b2567451225dfb8bcf1c0908cd421158200f0a148bfd737e29bf8b397222e"
    }
  }, {
    "fullUrl": "Immunization/7f31d742ac65a486f1de6f4710516c7796848e494e8fc568ef4ae5319091d059",
    "resource": {
      "resourceType": "Immunization",
      "meta": {
        "profile": [ "https://www.netzwerk-universitaetsmedizin.de/fhir/StructureDefinition/immunization" ]
      },
      "identifier": [ {
        "system": "https://mein.krankenhaus.de/fhir/NamingSystem/immunizationId",
        "value": "5146ecc717143694c7ba98c7c7dc769b1895cd08682c02f5990e83256186074f"
      } ],
      "status": "completed",
      "vaccineCode": {
        "coding": [ {
          "system": "http://snomed.info/sct",
          "code": "836377006"
        } ]
      },
      "patient": {
        "reference": "Patient/329772ee46b8fb52fbc8569d5c0d0636ec4a97f950a07b65dce87dfff260401e"
      },
      "encounter": {
        "reference": "Encounter/012d5fc79be7afddb721915fcfd2cf3f312fb138a6ce7ec051c34ef595ed9eb8"
      },
      "occurrenceDateTime": "2020-01-27",
      "protocolApplied": [ {
        "targetDisease": [ {
          "coding": [ {
            "system": "http://snomed.info/sct",
            "code": "6142004"
          } ]
        } ],
        "_doseNumberString": {
          "extension": [ {
            "url": "http://hl7.org/fhir/StructureDefinition/data-absent-reason",
            "valueCode": "unknown"
          } ]
        }
      } ]
    },
    "request": {
      "method": "POST",
      "url": "Immunization",
      "ifNoneExist": "identifier=https://mein.krankenhaus.de/fhir/NamingSystem/immunizationId|7f31d742ac65a486f1de6f4710516c7796848e494e8fc568ef4ae5319091d059"
    }
  }, {
    "fullUrl": "Immunization/778956e6169d604c637eab816c95314c75c16fbf8136ea3ae968c349fcdc9a6c",
    "resource": {
      "resourceType": "Immunization",
      "meta": {
        "profile": [ "https://www.netzwerk-universitaetsmedizin.de/fhir/StructureDefinition/immunization" ]
      },
      "identifier": [ {
        "system": "https://mein.krankenhaus.de/fhir/NamingSystem/immunizationId",
        "value": "b0d1190f6414628ea431ccf214f551fbb592f8825042047e3746707481c3d2be"
      } ],
      "status": "not-done",
      "vaccineCode": {
        "coding": [ {
          "system": "http://snomed.info/sct",
          "code": "1119349007"
        } ]
      },
      "patient": {
        "reference": "Patient/329772ee46b8fb52fbc8569d5c0d0636ec4a97f950a07b65dce87dfff260401e"
      },
      "encounter": {
        "reference": "Encounter/012d5fc79be7afddb721915fcfd2cf3f312fb138a6ce7ec051c34ef595ed9eb8"
      },
      "_occurrenceDateTime": {
        "extension": [ {
          "url": "http://hl7.org/fhir/StructureDefinition/data-absent-reason",
          "valueCode": "unknown"
        } ]
      },
      "protocolApplied": [ {
        "targetDisease": [ {
          "coding": [ {
            "system": "http://snomed.info/sct",
            "code": "840539006"
          } ]
        } ],
        "_doseNumberString": {
          "extension": [ {
            "url": "http://hl7.org/fhir/StructureDefinition/data-absent-reason",
            "valueCode": "unknown"
          } ]
        }
      } ]
    },
    "request": {
      "method": "POST",
      "url": "Immunization",
      "ifNoneExist": "identifier=https://mein.krankenhaus.de/fhir/NamingSystem/immunizationId|778956e6169d604c637eab816c95314c75c16fbf8136ea3ae968c349fcdc9a6c"
    }
  }, {
    "fullUrl": "Observation/43f8799d481f7a6fd49d3392b3ed7ddffacac94021a4cacde3102803ad69d0cd",
    "resource": {
      "resourceType": "Observation",
      "meta": {
        "profile": [ "https://www.netzwerk-universitaetsmedizin.de/fhir/StructureDefinition/sex-assigned-at-birth" ]
      },
      "identifier": [ {
        "system": "https://mein.krankenhaus.de/fhir/NamingSystem/observationId",
        "value": "558ff2fe8c5483ffde5e92528051e525368b878d42e9a1e1df5bfcb86cef1b6e"
      } ],
      "status": "final",
      "category": [ {
        "coding": [ {
          "system": "http://terminology.hl7.org/CodeSystem/observation-category",
          "code": "social-history",
          "display": "Social History"
        } ]
      } ],
      "code": {
        "coding": [ {
          "system": "http://loinc.org",
          "code": "76689-9"
        } ]
      },
      "subject": {
        "reference": "Patient/329772ee46b8fb52fbc8569d5c0d0636ec4a97f950a07b65dce87dfff260401e"
      },
      "encounter": {
        "reference": "Encounter/012d5fc79be7afddb721915fcfd2cf3f312fb138a6ce7ec051c34ef595ed9eb8"
      },
      "_effectiveDateTime": {
        "extension": [ {
          "url": "http://hl7.org/fhir/StructureDefinition/data-absent-reason",
          "valueCode": "unknown"
        } ]
      },
      "valueCodeableConcept": {
        "coding": [ {
          "system": "http://fhir.de/CodeSystem/gender-amtlich-de",
          "code": "X"
        } ]
      }
    },
    "request": {
      "method": "POST",
      "url": "Observation",
      "ifNoneExist": "identifier=https://mein.krankenhaus.de/fhir/NamingSystem/observationId|43f8799d481f7a6fd49d3392b3ed7ddffacac94021a4cacde3102803ad69d0cd"
    }
  }, {
    "fullUrl": "Observation/c91aac36f0dbc765520e8d8aae00b672619028483368579433ef56e8320fabbd",
    "resource": {
      "resourceType": "Observation",
      "meta": {
        "profile": [ "https://www.netzwerk-universitaetsmedizin.de/fhir/StructureDefinition/body-weight" ]
      },
      "identifier": [ {
        "type": {
          "coding": [ {
            "system": "http://terminology.hl7.org/CodeSystem/v2-0203",
            "code": "OBI",
            "display": "Observation Instance Identifier"
          } ]
        },
        "system": "https://mein.krankenhaus.de/fhir/NamingSystem/observationId",
        "value": "1a3ee2c6b33aecd0d70bbb3793ae4c5cba041b1d1df4c74ffa04beaf52b8440c",
        "assigner": {
          "reference": "Organization/3a4f3433bce81181bad2d8e0b8fafccf7dc800bc06f29be73dcb38b750a48f9a"
        }
      } ],
      "status": "final",
      "category": [ {
        "coding": [ {
          "system": "http://terminology.hl7.org/CodeSystem/observation-category",
          "code": "vital-signs",
          "display": "Vital Signs"
        } ]
      } ],
      "code": {
        "coding": [ {
          "system": "http://loinc.org",
          "code": "29463-7"
        }, {
          "system": "http://snomed.info/sct",
          "code": "27113001"
        } ],
        "text": "Body Weight"
      },
      "subject": {
        "reference": "Patient/329772ee46b8fb52fbc8569d5c0d0636ec4a97f950a07b65dce87dfff260401e"
      },
      "encounter": {
        "reference": "Encounter/012d5fc79be7afddb721915fcfd2cf3f312fb138a6ce7ec051c34ef595ed9eb8"
      },
      "_effectiveDateTime": {
        "extension": [ {
          "url": "http://hl7.org/fhir/StructureDefinition/data-absent-reason",
          "valueCode": "unknown"
        } ]
      },
      "valueQuantity": {
        "value": 136,
        "unit": "kilogram",
        "system": "http://unitsofmeasure.org",
        "code": "kg"
      }
    },
    "request": {
      "method": "POST",
      "url": "Observation",
      "ifNoneExist": "identifier=https://mein.krankenhaus.de/fhir/NamingSystem/observationId|c91aac36f0dbc765520e8d8aae00b672619028483368579433ef56e8320fabbd"
    }
  }, {
    "fullUrl": "Observation/e53ec9f15ee399036fe37a2feb65390111f981cc22013adfdadc382dab5f545f",
    "resource": {
      "resourceType": "Observation",
      "meta": {
        "profile": [ "https://www.netzwerk-universitaetsmedizin.de/fhir/StructureDefinition/known-exposure" ]
      },
      "identifier": [ {
        "type": {
          "coding": [ {
            "system": "http://terminology.hl7.org/CodeSystem/v2-0203",
            "code": "OBI",
            "display": "Observation Instance Identifier"
          } ]
        },
        "system": "https://mein.krankenhaus.de/fhir/NamingSystem/observationId",
        "value": "727b633183a4cfb9a661c0dd3978dfcaa76019c13dbc2a5e67336e3787094714",
        "assigner": {
          "reference": "Organization/3a4f3433bce81181bad2d8e0b8fafccf7dc800bc06f29be73dcb38b750a48f9a"
        }
      } ],
      "status": "final",
      "category": [ {
        "coding": [ {
          "system": "http://terminology.hl7.org/CodeSystem/observation-category",
          "code": "social-history",
          "display": "Social History"
        } ]
      } ],
      "code": {
        "coding": [ {
          "system": "http://loinc.org",
          "code": "88636-6"
        } ],
        "text": "Known exposure"
      },
      "subject": {
        "reference": "Patient/329772ee46b8fb52fbc8569d5c0d0636ec4a97f950a07b65dce87dfff260401e"
      },
      "encounter": {
        "reference": "Encounter/012d5fc79be7afddb721915fcfd2cf3f312fb138a6ce7ec051c34ef595ed9eb8"
      },
      "_effectiveDateTime": {
        "extension": [ {
          "url": "http://hl7.org/fhir/StructureDefinition/data-absent-reason",
          "valueCode": "unknown"
        } ]
      },
      "valueCodeableConcept": {
        "coding": [ {
          "system": "http://snomed.info/sct",
          "code": "373067005"
        } ]
      }
    },
    "request": {
      "method": "POST",
      "url": "Observation",
      "ifNoneExist": "identifier=https://mein.krankenhaus.de/fhir/NamingSystem/observationId|e53ec9f15ee399036fe37a2feb65390111f981cc22013adfdadc382dab5f545f"
    }
  }, {
    "fullUrl": "Procedure/84108e76532de17b2fc83ce498e83a18e8b8e302ca1cc3a84928951c848a274b",
    "resource": {
      "resourceType": "Procedure",
      "meta": {
        "profile": [ "https://www.netzwerk-universitaetsmedizin.de/fhir/StructureDefinition/dialysis" ]
      },
      "identifier": [ {
        "system": "https://mein.krankenhaus.de/fhir/NamingSystem/procedureId",
        "value": "b50216da879d05239531eb4351e4bae507e305bf50965d3e30a23c457f3f957d"
      } ],
      "status": "in-progress",
      "category": {
        "coding": [ {
          "system": "http://snomed.info/sct",
          "code": "277132007",
          "display": "Therapeutic procedure (procedure)"
        } ]
      },
      "code": {
        "coding": [ {
          "system": "http://snomed.info/sct",
          "code": "108241001"
        } ],
        "text": "Dialysis"
      },
      "subject": {
        "reference": "Patient/329772ee46b8fb52fbc8569d5c0d0636ec4a97f950a07b65dce87dfff260401e"
      },
      "encounter": {
        "reference": "Encounter/012d5fc79be7afddb721915fcfd2cf3f312fb138a6ce7ec051c34ef595ed9eb8"
      },
      "_performedDateTime": {
        "extension": [ {
          "url": "http://hl7.org/fhir/StructureDefinition/data-absent-reason",
          "valueCode": "unknown"
        } ]
      }
    },
    "request": {
      "method": "POST",
      "url": "Procedure",
      "ifNoneExist": "identifier=https://mein.krankenhaus.de/fhir/NamingSystem/procedureId|84108e76532de17b2fc83ce498e83a18e8b8e302ca1cc3a84928951c848a274b"
    }
  }, {
    "fullUrl": "Procedure/dc7e453c8d24a151223468348ebbbf2a1c54c4e70bf90fcd68d33e9e151d428c",
    "resource": {
      "resourceType": "Procedure",
      "meta": {
        "profile": [ "https://www.netzwerk-universitaetsmedizin.de/fhir/StructureDefinition/apheresis" ]
      },
      "identifier": [ {
        "system": "https://mein.krankenhaus.de/fhir/NamingSystem/procedureId",
        "value": "a7429cb2b95efa5207271da92859566fbe5815df36e9471bfaf48e6ecb712bcb"
      } ],
      "status": "in-progress",
      "category": {
        "coding": [ {
          "system": "http://snomed.info/sct",
          "code": "277132007",
          "display": "Therapeutic procedure (procedure)"
        } ]
      },
      "code": {
        "coding": [ {
          "system": "http://snomed.info/sct",
          "code": "127788007"
        } ],
        "text": "Apheresis"
      },
      "subject": {
        "reference": "Patient/329772ee46b8fb52fbc8569d5c0d0636ec4a97f950a07b65dce87dfff260401e"
      },
      "encounter": {
        "reference": "Encounter/012d5fc79be7afddb721915fcfd2cf3f312fb138a6ce7ec051c34ef595ed9eb8"
      },
      "_performedDateTime": {
        "extension": [ {
          "url": "http://hl7.org/fhir/StructureDefinition/data-absent-reason",
          "valueCode": "unknown"
        } ]
      }
    },
    "request": {
      "method": "POST",
      "url": "Procedure",
      "ifNoneExist": "identifier=https://mein.krankenhaus.de/fhir/NamingSystem/procedureId|dc7e453c8d24a151223468348ebbbf2a1c54c4e70bf90fcd68d33e9e151d428c"
    }
  }, {
    "fullUrl": "Procedure/eb80f00876e6f40caab46b71a278f4cc0952f2f3b02189253a9fa33b84dcaea0",
    "resource": {
      "resourceType": "Procedure",
      "meta": {
        "profile": [ "https://www.netzwerk-universitaetsmedizin.de/fhir/StructureDefinition/prone-position" ]
      },
      "identifier": [ {
        "system": "https://mein.krankenhaus.de/fhir/NamingSystem/procedureId",
        "value": "c0ff581163bf52f6611d804d34872f76105e536466a3edf21ae5ee6346bb4e79"
      } ],
      "status": "unknown",
      "category": {
        "coding": [ {
          "system": "http://snomed.info/sct",
          "code": "225287004",
          "display": "Procedures relating to positioning and support (procedure)"
        } ]
      },
      "code": {
        "coding": [ {
          "system": "http://snomed.info/sct",
          "code": "431182000"
        } ],
        "text": "Prone position"
      },
      "subject": {
        "reference": "Patient/329772ee46b8fb52fbc8569d5c0d0636ec4a97f950a07b65dce87dfff260401e"
      },
      "encounter": {
        "reference": "Encounter/012d5fc79be7afddb721915fcfd2cf3f312fb138a6ce7ec051c34ef595ed9eb8"
      },
      "_performedDateTime": {
        "extension": [ {
          "url": "http://hl7.org/fhir/StructureDefinition/data-absent-reason",
          "valueCode": "unknown"
        } ]
      }
    },
    "request": {
      "method": "POST",
      "url": "Procedure",
      "ifNoneExist": "identifier=https://mein.krankenhaus.de/fhir/NamingSystem/procedureId|eb80f00876e6f40caab46b71a278f4cc0952f2f3b02189253a9fa33b84dcaea0"
    }
  }, {
    "fullUrl": "Procedure/d58313fded29602487d40bd6f65e6d39e7735c535aa5878b5f17c0ae0d85e515",
    "resource": {
      "resourceType": "Procedure",
      "meta": {
        "profile": [ "https://www.netzwerk-universitaetsmedizin.de/fhir/StructureDefinition/respiratory-therapies" ]
      },
      "identifier": [ {
        "system": "https://mein.krankenhaus.de/fhir/NamingSystem/procedureId",
        "value": "e7a03436adb678c7b549457963d740ef7f08a896a6ae59b51afa968bef7a10cb"
      } ],
      "status": "in-progress",
      "category": {
        "coding": [ {
          "system": "http://snomed.info/sct",
          "code": "277132007",
          "display": "Therapeutic procedure (procedure)"
        } ]
      },
      "code": {
        "coding": [ {
          "system": "http://snomed.info/sct",
          "code": "40617009:425391005=26412008"
        } ]
      },
      "subject": {
        "reference": "Patient/329772ee46b8fb52fbc8569d5c0d0636ec4a97f950a07b65dce87dfff260401e"
      },
      "encounter": {
        "reference": "Encounter/012d5fc79be7afddb721915fcfd2cf3f312fb138a6ce7ec051c34ef595ed9eb8"
      },
      "_performedDateTime": {
        "extension": [ {
          "url": "http://hl7.org/fhir/StructureDefinition/data-absent-reason",
          "valueCode": "unknown"
        } ]
      },
      "usedCode": [ {
        "coding": [ {
          "system": "http://snomed.info/sct",
          "code": "26412008"
        } ]
      } ]
    },
    "request": {
      "method": "POST",
      "url": "Procedure",
      "ifNoneExist": "identifier=https://mein.krankenhaus.de/fhir/NamingSystem/procedureId|d58313fded29602487d40bd6f65e6d39e7735c535aa5878b5f17c0ae0d85e515"
    }
  }, {
    "fullUrl": "Observation/842444bdd8682174e9d0424aba1599feb1aa4b28e9a2d0a5975e32dbd8668421",
    "resource": {
      "resourceType": "Observation",
      "meta": {
        "profile": [ "https://www.netzwerk-universitaetsmedizin.de/fhir/StructureDefinition/patient-in-icu" ]
      },
      "identifier": [ {
        "system": "https://mein.krankenhaus.de/fhir/NamingSystem/observationId",
        "value": "6d5e823f3b25425f16284a898cef2bfb1d05939449b3c8b9bb201b68d209eed6"
      } ],
      "status": "final",
      "category": [ {
        "coding": [ {
          "system": "http://terminology.hl7.org/CodeSystem/observation-category",
          "code": "survey",
          "display": "Survey"
        } ]
      } ],
      "code": {
        "coding": [ {
          "system": "https://www.netzwerk-universitaetsmedizin.de/fhir/CodeSystem/ecrf-parameter-codes",
          "code": "01",
          "display": "Is the patient in the intensive care unit?"
        } ]
      },
      "subject": {
        "reference": "Patient/329772ee46b8fb52fbc8569d5c0d0636ec4a97f950a07b65dce87dfff260401e"
      },
      "encounter": {
        "reference": "Encounter/012d5fc79be7afddb721915fcfd2cf3f312fb138a6ce7ec051c34ef595ed9eb8"
      },
      "_effectiveDateTime": {
        "extension": [ {
          "url": "http://hl7.org/fhir/StructureDefinition/data-absent-reason",
          "valueCode": "unknown"
        } ]
      },
      "valueCodeableConcept": {
        "coding": [ {
          "system": "http://snomed.info/sct",
          "code": "261665006"
        } ]
      }
    },
    "request": {
      "method": "POST",
      "url": "Observation",
      "ifNoneExist": "identifier=https://mein.krankenhaus.de/fhir/NamingSystem/observationId|842444bdd8682174e9d0424aba1599feb1aa4b28e9a2d0a5975e32dbd8668421"
    }
  }, {
    "fullUrl": "Condition/bcb864b36c31742fd9db43cfc37ed738dad33670dd309dd3f65f72d1dc0f1cd8",
    "resource": {
      "resourceType": "Condition",
      "meta": {
        "profile": [ "https://www.netzwerk-universitaetsmedizin.de/fhir/StructureDefinition/dependence-on-ventilator" ]
      },
      "identifier": [ {
        "system": "https://mein.krankenhaus.de/fhir/NamingSystem/conditionId",
        "value": "2542282db4a1055d69f19495140213d5dba035bfc574630f50027f5d0b62f1be"
      } ],
      "clinicalStatus": {
        "coding": [ {
          "system": "http://terminology.hl7.org/CodeSystem/condition-clinical",
          "code": "active",
          "display": "Active"
        } ]
      },
      "verificationStatus": {
        "coding": [ {
          "system": "http://terminology.hl7.org/CodeSystem/condition-ver-status",
          "code": "refuted",
          "display": "Refuted"
        }, {
          "system": "http://snomed.info/sct",
          "code": "410594000",
          "display": "Definitely NOT present (qualifier value)"
        } ]
      },
      "category": [ {
        "coding": [ {
          "system": "http://snomed.info/sct",
          "code": "404989005",
          "display": "Ventilation status (observable entity)"
        } ]
      } ],
      "code": {
        "coding": [ {
          "system": "http://snomed.info/sct",
          "code": "444932008"
        } ]
      },
      "subject": {
        "reference": "Patient/329772ee46b8fb52fbc8569d5c0d0636ec4a97f950a07b65dce87dfff260401e"
      },
      "encounter": {
        "reference": "Encounter/012d5fc79be7afddb721915fcfd2cf3f312fb138a6ce7ec051c34ef595ed9eb8"
      },
      "_recordedDate": {
        "extension": [ {
          "url": "http://hl7.org/fhir/StructureDefinition/data-absent-reason",
          "valueCode": "unknown"
        } ]
      }
    },
    "request": {
      "method": "POST",
      "url": "Condition",
      "ifNoneExist": "identifier=https://mein.krankenhaus.de/fhir/NamingSystem/conditionId|bcb864b36c31742fd9db43cfc37ed738dad33670dd309dd3f65f72d1dc0f1cd8"
    }
  }, {
    "fullUrl": "Observation/91828a4a7c7d797095828b6b91173ba4951b468af5b728de0749c56ad0f7a474",
    "resource": {
      "resourceType": "Observation",
      "meta": {
        "profile": [ "https://www.netzwerk-universitaetsmedizin.de/fhir/StructureDefinition/discharge-disposition" ]
      },
      "identifier": [ {
        "type": {
          "coding": [ {
            "system": "http://terminology.hl7.org/CodeSystem/v2-0203",
            "code": "OBI",
            "display": "Observation Instance Identifier"
          } ]
        },
        "system": "https://mein.krankenhaus.de/fhir/NamingSystem/observationId",
        "value": "e5a79c67dc8a8bb80fc27342f3a5afdc00666aa916690d47f2250b729b82efd2",
        "assigner": {
          "reference": "Organization/3a4f3433bce81181bad2d8e0b8fafccf7dc800bc06f29be73dcb38b750a48f9a"
        }
      } ],
      "status": "final",
      "category": [ {
        "coding": [ {
          "system": "http://terminology.hl7.org/CodeSystem/observation-category",
          "code": "social-history",
          "display": "Social History"
        } ]
      } ],
      "code": {
        "coding": [ {
          "system": "http://loinc.org",
          "code": "55128-3"
        } ],
        "text": "type of Discharge"
      },
      "subject": {
        "reference": "Patient/329772ee46b8fb52fbc8569d5c0d0636ec4a97f950a07b65dce87dfff260401e"
      },
      "encounter": {
        "reference": "Encounter/012d5fc79be7afddb721915fcfd2cf3f312fb138a6ce7ec051c34ef595ed9eb8"
      },
      "_effectiveDateTime": {
        "extension": [ {
          "url": "http://hl7.org/fhir/StructureDefinition/data-absent-reason",
          "valueCode": "unknown"
        } ]
      },
      "valueCodeableConcept": {
        "coding": [ {
          "system": "http://snomed.info/sct",
          "code": "32485007"
        } ]
      }
    },
    "request": {
      "method": "POST",
      "url": "Observation",
      "ifNoneExist": "identifier=https://mein.krankenhaus.de/fhir/NamingSystem/observationId|91828a4a7c7d797095828b6b91173ba4951b468af5b728de0749c56ad0f7a474"
    }
  }, {
    "fullUrl": "Observation/a2d045d25e09b5c5427a6fc749415106f90788c1870c295697c37b3c45715f3d",
    "resource": {
      "resourceType": "Observation",
      "meta": {
        "profile": [ "https://www.netzwerk-universitaetsmedizin.de/fhir/StructureDefinition/sars-cov-2-rt-pcr" ]
      },
      "identifier": [ {
        "type": {
          "coding": [ {
            "system": "http://terminology.hl7.org/CodeSystem/v2-0203",
            "code": "OBI",
            "display": "Observation Instance Identifier"
          } ]
        },
        "system": "https://mein.krankenhaus.de/fhir/NamingSystem/observationId",
        "value": "bc4cda448a79dd6db4d3f9f71a5e5454a89be23f20ef23a5dbdb310f6b84c373",
        "assigner": {
          "reference": "Organization/3a4f3433bce81181bad2d8e0b8fafccf7dc800bc06f29be73dcb38b750a48f9a"
        }
      } ],
      "status": "final",
      "category": [ {
        "coding": [ {
          "system": "http://terminology.hl7.org/CodeSystem/observation-category",
          "code": "laboratory",
          "display": "Laboratory"
        }, {
          "system": "http://loinc.org",
          "code": "26436-6",
          "display": "Laboratory studies (set)"
        } ]
      } ],
      "code": {
        "coding": [ {
          "system": "http://loinc.org",
          "code": "94500-6"
        } ]
      },
      "subject": {
        "reference": "Patient/329772ee46b8fb52fbc8569d5c0d0636ec4a97f950a07b65dce87dfff260401e"
      },
      "encounter": {
        "reference": "Encounter/012d5fc79be7afddb721915fcfd2cf3f312fb138a6ce7ec051c34ef595ed9eb8"
      },
      "_effectiveDateTime": {
        "extension": [ {
          "url": "http://hl7.org/fhir/StructureDefinition/data-absent-reason",
          "valueCode": "unknown"
        } ]
      },
      "valueCodeableConcept": {
        "coding": [ {
          "system": "http://snomed.info/sct",
          "code": "260415000"
        } ]
      }
    },
    "request": {
      "method": "POST",
      "url": "Observation",
      "ifNoneExist": "identifier=https://mein.krankenhaus.de/fhir/NamingSystem/observationId|a2d045d25e09b5c5427a6fc749415106f90788c1870c295697c37b3c45715f3d"
    }
  }, {
    "fullUrl": "Observation/9810cb7ecc266cf8d645b945103a566ba3304dea34caab468ccb5de68236dad9",
    "resource": {
      "resourceType": "Observation",
      "meta": {
        "profile": [ "https://www.medizininformatik-initiative.de/fhir/core/modul-labor/StructureDefinition/ObservationLab" ]
      },
      "identifier": [ {
        "type": {
          "coding": [ {
            "system": "http://terminology.hl7.org/CodeSystem/v2-0203",
            "code": "OBI",
            "display": "Observation Instance Identifier"
          } ]
        },
        "system": "https://mein.krankenhaus.de/fhir/NamingSystem/observationId",
        "value": "07636967ecbf4a23c09580f98d2f129946fc4e8704979c4add00480f5fad1bab",
        "assigner": {
          "reference": "Organization/3a4f3433bce81181bad2d8e0b8fafccf7dc800bc06f29be73dcb38b750a48f9a"
        }
      } ],
      "status": "final",
      "category": [ {
        "coding": [ {
          "system": "http://terminology.hl7.org/CodeSystem/observation-category",
          "code": "laboratory",
          "display": "Laboratory"
        }, {
          "system": "http://loinc.org",
          "code": "26436-6"
        } ]
      } ],
      "code": {
        "coding": [ {
          "system": "http://loinc.org",
          "code": "48421-2",
          "display": "c-reactive-protein-in-capillary-blood"
        } ],
        "text": "crp"
      },
      "subject": {
        "reference": "Patient/329772ee46b8fb52fbc8569d5c0d0636ec4a97f950a07b65dce87dfff260401e"
      },
      "encounter": {
        "reference": "Encounter/012d5fc79be7afddb721915fcfd2cf3f312fb138a6ce7ec051c34ef595ed9eb8"
      },
      "effectiveDateTime": "2020-05-17T18:12:00+00:00",
      "valueQuantity": {
        "value": 22.523523759643616,
        "unit": "mg/dL",
        "system": "http://unitsofmeasure.org",
        "code": "mg/dL"
      }
    },
    "request": {
      "method": "POST",
      "url": "Observation",
      "ifNoneExist": "identifier=https://mein.krankenhaus.de/fhir/NamingSystem/observationId|9810cb7ecc266cf8d645b945103a566ba3304dea34caab468ccb5de68236dad9"
    }
  }, {
    "fullUrl": "Observation/43477d9bb8bf1b92c89fd0ff5b6c9dffac46a76267eafb716db7f18554213ab6",
    "resource": {
      "resourceType": "Observation",
      "meta": {
        "profile": [ "https://www.medizininformatik-initiative.de/fhir/core/modul-labor/StructureDefinition/ObservationLab" ]
      },
      "identifier": [ {
        "type": {
          "coding": [ {
            "system": "http://terminology.hl7.org/CodeSystem/v2-0203",
            "code": "OBI",
            "display": "Observation Instance Identifier"
          } ]
        },
        "system": "https://mein.krankenhaus.de/fhir/NamingSystem/observationId",
        "value": "f6be75c47114c6a0321e9d1de502e7890c7ead321e4c93d870643600c500c620",
        "assigner": {
          "reference": "Organization/3a4f3433bce81181bad2d8e0b8fafccf7dc800bc06f29be73dcb38b750a48f9a"
        }
      } ],
      "status": "final",
      "category": [ {
        "coding": [ {
          "system": "http://terminology.hl7.org/CodeSystem/observation-category",
          "code": "laboratory",
          "display": "Laboratory"
        }, {
          "system": "http://loinc.org",
          "code": "26436-6"
        } ]
      } ],
      "code": {
        "coding": [ {
          "system": "http://loinc.org",
          "code": "14723-1",
          "display": "ferritin-in-serum-or-plasma"
        } ],
        "text": "ferritin"
      },
      "subject": {
        "reference": "Patient/329772ee46b8fb52fbc8569d5c0d0636ec4a97f950a07b65dce87dfff260401e"
      },
      "encounter": {
        "reference": "Encounter/012d5fc79be7afddb721915fcfd2cf3f312fb138a6ce7ec051c34ef595ed9eb8"
      },
      "effectiveDateTime": "2020-05-17T18:12:00+00:00",
      "valueQuantity": {
        "value": 28.71359250124157,
        "unit": "pmol/L",
        "system": "http://unitsofmeasure.org",
        "code": "pmol/L"
      }
    },
    "request": {
      "method": "POST",
      "url": "Observation",
      "ifNoneExist": "identifier=https://mein.krankenhaus.de/fhir/NamingSystem/observationId|43477d9bb8bf1b92c89fd0ff5b6c9dffac46a76267eafb716db7f18554213ab6"
    }
  }, {
    "fullUrl": "Observation/2bdaaf8f5caee159d4f603743f72ff0ba1ec3f1159857e7ee49f3bfb6d82a838",
    "resource": {
      "resourceType": "Observation",
      "meta": {
        "profile": [ "https://www.medizininformatik-initiative.de/fhir/core/modul-labor/StructureDefinition/ObservationLab" ]
      },
      "identifier": [ {
        "type": {
          "coding": [ {
            "system": "http://terminology.hl7.org/CodeSystem/v2-0203",
            "code": "OBI",
            "display": "Observation Instance Identifier"
          } ]
        },
        "system": "https://mein.krankenhaus.de/fhir/NamingSystem/observationId",
        "value": "3cfa6773ff395ed8721260f26cf1cf6d0f43ed1523ca56de1226e23b4e61de52",
        "assigner": {
          "reference": "Organization/3a4f3433bce81181bad2d8e0b8fafccf7dc800bc06f29be73dcb38b750a48f9a"
        }
      } ],
      "status": "final",
      "category": [ {
        "coding": [ {
          "system": "http://terminology.hl7.org/CodeSystem/observation-category",
          "code": "laboratory",
          "display": "Laboratory"
        }, {
          "system": "http://loinc.org",
          "code": "26436-6"
        } ]
      } ],
      "code": {
        "coding": [ {
          "system": "http://loinc.org",
          "code": "14631-6",
          "display": "bilirubin.total-in-serum-or-plasma"
        } ],
        "text": "bilirubin"
      },
      "subject": {
        "reference": "Patient/329772ee46b8fb52fbc8569d5c0d0636ec4a97f950a07b65dce87dfff260401e"
      },
      "encounter": {
        "reference": "Encounter/012d5fc79be7afddb721915fcfd2cf3f312fb138a6ce7ec051c34ef595ed9eb8"
      },
      "effectiveDateTime": "2020-05-17T18:12:00+00:00",
      "valueQuantity": {
        "value": 44.059195440108354,
        "unit": "umol/L",
        "system": "http://unitsofmeasure.org",
        "code": "umol/L"
      }
    },
    "request": {
      "method": "POST",
      "url": "Observation",
      "ifNoneExist": "identifier=https://mein.krankenhaus.de/fhir/NamingSystem/observationId|2bdaaf8f5caee159d4f603743f72ff0ba1ec3f1159857e7ee49f3bfb6d82a838"
    }
  }, {
    "fullUrl": "Observation/d306ff7527b86b489074a46cd3ea2fb2b088ae8826d8066bc47ce9716b359227",
    "resource": {
      "resourceType": "Observation",
      "meta": {
        "profile": [ "https://www.medizininformatik-initiative.de/fhir/core/modul-labor/StructureDefinition/ObservationLab" ]
      },
      "identifier": [ {
        "type": {
          "coding": [ {
            "system": "http://terminology.hl7.org/CodeSystem/v2-0203",
            "code": "OBI",
            "display": "Observation Instance Identifier"
          } ]
        },
        "system": "https://mein.krankenhaus.de/fhir/NamingSystem/observationId",
        "value": "ef36b3e91e5f5136048044f5a2504e2bc987fead9512314c0f0964609f83525b",
        "assigner": {
          "reference": "Organization/3a4f3433bce81181bad2d8e0b8fafccf7dc800bc06f29be73dcb38b750a48f9a"
        }
      } ],
      "status": "final",
      "category": [ {
        "coding": [ {
          "system": "http://terminology.hl7.org/CodeSystem/observation-category",
          "code": "laboratory",
          "display": "Laboratory"
        }, {
          "system": "http://loinc.org",
          "code": "26436-6"
        } ]
      } ],
      "code": {
        "coding": [ {
          "system": "http://loinc.org",
          "code": "71427-9",
          "display": "fibrin-d-dimer-feu-in-blood-by-immunoassay"
        } ],
        "text": "ddimer"
      },
      "subject": {
        "reference": "Patient/329772ee46b8fb52fbc8569d5c0d0636ec4a97f950a07b65dce87dfff260401e"
      },
      "encounter": {
        "reference": "Encounter/012d5fc79be7afddb721915fcfd2cf3f312fb138a6ce7ec051c34ef595ed9eb8"
      },
      "effectiveDateTime": "2020-05-17T18:12:00+00:00",
      "valueQuantity": {
        "value": 40.14993194181796,
        "unit": "ng/mL{FEU}",
        "system": "http://unitsofmeasure.org",
        "code": "ng/mL{FEU}"
      }
    },
    "request": {
      "method": "POST",
      "url": "Observation",
      "ifNoneExist": "identifier=https://mein.krankenhaus.de/fhir/NamingSystem/observationId|d306ff7527b86b489074a46cd3ea2fb2b088ae8826d8066bc47ce9716b359227"
    }
  }, {
    "fullUrl": "Observation/327d6d10db862cb4d187e451be6b6a753d8810f1d85c22dbf64457a2740d7ad3",
    "resource": {
      "resourceType": "Observation",
      "meta": {
        "profile": [ "https://www.medizininformatik-initiative.de/fhir/core/modul-labor/StructureDefinition/ObservationLab" ]
      },
      "identifier": [ {
        "type": {
          "coding": [ {
            "system": "http://terminology.hl7.org/CodeSystem/v2-0203",
            "code": "OBI",
            "display": "Observation Instance Identifier"
          } ]
        },
        "system": "https://mein.krankenhaus.de/fhir/NamingSystem/observationId",
        "value": "f5162f82b3aaf658ed2368bd034cfebf6ebb6b78a85ace511ea96a3871c486e4",
        "assigner": {
          "reference": "Organization/3a4f3433bce81181bad2d8e0b8fafccf7dc800bc06f29be73dcb38b750a48f9a"
        }
      } ],
      "status": "final",
      "category": [ {
        "coding": [ {
          "system": "http://terminology.hl7.org/CodeSystem/observation-category",
          "code": "laboratory",
          "display": "Laboratory"
        }, {
          "system": "http://loinc.org",
          "code": "26436-6"
        } ]
      } ],
      "code": {
        "coding": [ {
          "system": "http://loinc.org",
          "code": "2325-9",
          "display": "gamma-glutamyl-transferase-aspartate-aminotransferase-in-serum-or-plasma"
        } ],
        "text": "gammagt"
      },
      "subject": {
        "reference": "Patient/329772ee46b8fb52fbc8569d5c0d0636ec4a97f950a07b65dce87dfff260401e"
      },
      "encounter": {
        "reference": "Encounter/012d5fc79be7afddb721915fcfd2cf3f312fb138a6ce7ec051c34ef595ed9eb8"
      },
      "effectiveDateTime": "2020-05-17T18:12:00+00:00",
      "valueQuantity": {
        "value": 56.650133291877616,
        "unit": "U/L",
        "system": "http://unitsofmeasure.org",
        "code": "U/L"
      }
    },
    "request": {
      "method": "POST",
      "url": "Observation",
      "ifNoneExist": "identifier=https://mein.krankenhaus.de/fhir/NamingSystem/observationId|327d6d10db862cb4d187e451be6b6a753d8810f1d85c22dbf64457a2740d7ad3"
    }
  }, {
    "fullUrl": "Observation/8d5035d5dbb053f38800b768511a3656ac84d108338d74dd7e5e84b8a53172ea",
    "resource": {
      "resourceType": "Observation",
      "meta": {
        "profile": [ "https://www.medizininformatik-initiative.de/fhir/core/modul-labor/StructureDefinition/ObservationLab" ]
      },
      "identifier": [ {
        "type": {
          "coding": [ {
            "system": "http://terminology.hl7.org/CodeSystem/v2-0203",
            "code": "OBI",
            "display": "Observation Instance Identifier"
          } ]
        },
        "system": "https://mein.krankenhaus.de/fhir/NamingSystem/observationId",
        "value": "f334276fcb64b0d6886d66dfbfa82d0e4d807689ce9308923ccbe31c5776fb7a",
        "assigner": {
          "reference": "Organization/3a4f3433bce81181bad2d8e0b8fafccf7dc800bc06f29be73dcb38b750a48f9a"
        }
      } ],
      "status": "final",
      "category": [ {
        "coding": [ {
          "system": "http://terminology.hl7.org/CodeSystem/observation-category",
          "code": "laboratory",
          "display": "Laboratory"
        }, {
          "system": "http://loinc.org",
          "code": "26436-6"
        } ]
      } ],
      "code": {
        "coding": [ {
          "system": "http://loinc.org",
          "code": "88112-8",
          "display": "aspartate-aminotransferase-in-serum-or-plasma-by-no-addition-of-p-5-p"
        } ],
        "text": "gotast"
      },
      "subject": {
        "reference": "Patient/329772ee46b8fb52fbc8569d5c0d0636ec4a97f950a07b65dce87dfff260401e"
      },
      "encounter": {
        "reference": "Encounter/012d5fc79be7afddb721915fcfd2cf3f312fb138a6ce7ec051c34ef595ed9eb8"
      },
      "effectiveDateTime": "2020-05-17T18:12:00+00:00",
      "valueQuantity": {
        "value": 1.247673150566475,
        "unit": "U/L",
        "system": "http://unitsofmeasure.org",
        "code": "U/L"
      }
    },
    "request": {
      "method": "POST",
      "url": "Observation",
      "ifNoneExist": "identifier=https://mein.krankenhaus.de/fhir/NamingSystem/observationId|8d5035d5dbb053f38800b768511a3656ac84d108338d74dd7e5e84b8a53172ea"
    }
  }, {
    "fullUrl": "Observation/a4b7c2da9ce9d712b2ae79a7ac75b1d8a4c68d614257573d0685db46e7145098",
    "resource": {
      "resourceType": "Observation",
      "meta": {
        "profile": [ "https://www.medizininformatik-initiative.de/fhir/core/modul-labor/StructureDefinition/ObservationLab" ]
      },
      "identifier": [ {
        "type": {
          "coding": [ {
            "system": "http://terminology.hl7.org/CodeSystem/v2-0203",
            "code": "OBI",
            "display": "Observation Instance Identifier"
          } ]
        },
        "system": "https://mein.krankenhaus.de/fhir/NamingSystem/observationId",
        "value": "fdd0dede50362535aca91a93716b082bc321f2df73365366acce657d625c1351",
        "assigner": {
          "reference": "Organization/3a4f3433bce81181bad2d8e0b8fafccf7dc800bc06f29be73dcb38b750a48f9a"
        }
      } ],
      "status": "final",
      "category": [ {
        "coding": [ {
          "system": "http://terminology.hl7.org/CodeSystem/observation-category",
          "code": "laboratory",
          "display": "Laboratory"
        }, {
          "system": "http://loinc.org",
          "code": "26436-6"
        } ]
      } ],
      "code": {
        "coding": [ {
          "system": "http://loinc.org",
          "code": "14803-1",
          "display": "lactate-dehydrogenase-in-body-fluid-by-lactate-to-pyruvate-reaction"
        } ],
        "text": "ldh"
      },
      "subject": {
        "reference": "Patient/329772ee46b8fb52fbc8569d5c0d0636ec4a97f950a07b65dce87dfff260401e"
      },
      "encounter": {
        "reference": "Encounter/012d5fc79be7afddb721915fcfd2cf3f312fb138a6ce7ec051c34ef595ed9eb8"
      },
      "effectiveDateTime": "2020-05-17T18:12:00+00:00",
      "valueQuantity": {
        "value": 76.2459903971052,
        "unit": "U/L",
        "system": "http://unitsofmeasure.org",
        "code": "U/L"
      }
    },
    "request": {
      "method": "POST",
      "url": "Observation",
      "ifNoneExist": "identifier=https://mein.krankenhaus.de/fhir/NamingSystem/observationId|a4b7c2da9ce9d712b2ae79a7ac75b1d8a4c68d614257573d0685db46e7145098"
    }
  }, {
    "fullUrl": "Observation/9ac82981b8acdc3abde4b63776fb1f0e96cf501696acd03bfd5c29ef7c72c0cd",
    "resource": {
      "resourceType": "Observation",
      "meta": {
        "profile": [ "https://www.medizininformatik-initiative.de/fhir/core/modul-labor/StructureDefinition/ObservationLab" ]
      },
      "identifier": [ {
        "type": {
          "coding": [ {
            "system": "http://terminology.hl7.org/CodeSystem/v2-0203",
            "code": "OBI",
            "display": "Observation Instance Identifier"
          } ]
        },
        "system": "https://mein.krankenhaus.de/fhir/NamingSystem/observationId",
        "value": "df0b4cc092427a28b86710abc2ee71ba365874dff95ea361131ce63de098d369",
        "assigner": {
          "reference": "Organization/3a4f3433bce81181bad2d8e0b8fafccf7dc800bc06f29be73dcb38b750a48f9a"
        }
      } ],
      "status": "final",
      "category": [ {
        "coding": [ {
          "system": "http://terminology.hl7.org/CodeSystem/observation-category",
          "code": "laboratory",
          "display": "Laboratory"
        }, {
          "system": "http://loinc.org",
          "code": "26436-6"
        } ]
      } ],
      "code": {
        "coding": [ {
          "system": "http://loinc.org",
          "code": "10839-9",
          "display": "troponin-i.cardiac-in-serum-or-plasma"
        } ],
        "text": "kardiale_troponine"
      },
      "subject": {
        "reference": "Patient/329772ee46b8fb52fbc8569d5c0d0636ec4a97f950a07b65dce87dfff260401e"
      },
      "encounter": {
        "reference": "Encounter/012d5fc79be7afddb721915fcfd2cf3f312fb138a6ce7ec051c34ef595ed9eb8"
      },
      "effectiveDateTime": "2020-05-17T18:12:00+00:00",
      "valueQuantity": {
        "value": 37.451162331586076,
        "unit": "ng/L",
        "system": "http://unitsofmeasure.org",
        "code": "ng/L"
      }
    },
    "request": {
      "method": "POST",
      "url": "Observation",
      "ifNoneExist": "identifier=https://mein.krankenhaus.de/fhir/NamingSystem/observationId|9ac82981b8acdc3abde4b63776fb1f0e96cf501696acd03bfd5c29ef7c72c0cd"
    }
  }, {
    "fullUrl": "Observation/b2b22c57dd9b93605a4853770c3a3ec56119e4983f8225fef298d09dfefa0598",
    "resource": {
      "resourceType": "Observation",
      "meta": {
        "profile": [ "https://www.medizininformatik-initiative.de/fhir/core/modul-labor/StructureDefinition/ObservationLab" ]
      },
      "identifier": [ {
        "type": {
          "coding": [ {
            "system": "http://terminology.hl7.org/CodeSystem/v2-0203",
            "code": "OBI",
            "display": "Observation Instance Identifier"
          } ]
        },
        "system": "https://mein.krankenhaus.de/fhir/NamingSystem/observationId",
        "value": "91f90f89c578fbab430f5cbfce61934e270d08e64a43a903d3b6c9f18b49b1f9",
        "assigner": {
          "reference": "Organization/3a4f3433bce81181bad2d8e0b8fafccf7dc800bc06f29be73dcb38b750a48f9a"
        }
      } ],
      "status": "final",
      "category": [ {
        "coding": [ {
          "system": "http://terminology.hl7.org/CodeSystem/observation-category",
          "code": "laboratory",
          "display": "Laboratory"
        }, {
          "system": "http://loinc.org",
          "code": "26436-6"
        } ]
      } ],
      "code": {
        "coding": [ {
          "system": "http://loinc.org",
          "code": "14775-1",
          "display": "hemoglobin-in-arterial-blood-by-oximetry"
        } ],
        "text": "hamoglobin"
      },
      "subject": {
        "reference": "Patient/329772ee46b8fb52fbc8569d5c0d0636ec4a97f950a07b65dce87dfff260401e"
      },
      "encounter": {
        "reference": "Encounter/012d5fc79be7afddb721915fcfd2cf3f312fb138a6ce7ec051c34ef595ed9eb8"
      },
      "effectiveDateTime": "2020-05-17T18:12:00+00:00",
      "valueQuantity": {
        "value": 44.27159844796691,
        "unit": "g/L",
        "system": "http://unitsofmeasure.org",
        "code": "g/L"
      }
    },
    "request": {
      "method": "POST",
      "url": "Observation",
      "ifNoneExist": "identifier=https://mein.krankenhaus.de/fhir/NamingSystem/observationId|b2b22c57dd9b93605a4853770c3a3ec56119e4983f8225fef298d09dfefa0598"
    }
  }, {
    "fullUrl": "Observation/b3f71688cd54bdcefa836d18b9263c8ec728a9a4bbe17130fe2f40c4ee7ce2d0",
    "resource": {
      "resourceType": "Observation",
      "meta": {
        "profile": [ "https://www.medizininformatik-initiative.de/fhir/core/modul-labor/StructureDefinition/ObservationLab" ]
      },
      "identifier": [ {
        "type": {
          "coding": [ {
            "system": "http://terminology.hl7.org/CodeSystem/v2-0203",
            "code": "OBI",
            "display": "Observation Instance Identifier"
          } ]
        },
        "system": "https://mein.krankenhaus.de/fhir/NamingSystem/observationId",
        "value": "0f0b23f4ee9a8a42c7ac08faecfe3d7d9fd850ec6f784e42a11f4af9694fc67f",
        "assigner": {
          "reference": "Organization/3a4f3433bce81181bad2d8e0b8fafccf7dc800bc06f29be73dcb38b750a48f9a"
        }
      } ],
      "status": "final",
      "category": [ {
        "coding": [ {
          "system": "http://terminology.hl7.org/CodeSystem/observation-category",
          "code": "laboratory",
          "display": "Laboratory"
        }, {
          "system": "http://loinc.org",
          "code": "26436-6"
        } ]
      } ],
      "code": {
        "coding": [ {
          "system": "http://loinc.org",
          "code": "25386-4",
          "display": "creatinine-in-body-fluid"
        } ],
        "text": "kreatinin"
      },
      "subject": {
        "reference": "Patient/329772ee46b8fb52fbc8569d5c0d0636ec4a97f950a07b65dce87dfff260401e"
      },
      "encounter": {
        "reference": "Encounter/012d5fc79be7afddb721915fcfd2cf3f312fb138a6ce7ec051c34ef595ed9eb8"
      },
      "effectiveDateTime": "2020-05-17T18:12:00+00:00",
      "valueQuantity": {
        "value": 63.95592359246217,
        "unit": "umol/L",
        "system": "http://unitsofmeasure.org",
        "code": "umol/L"
      }
    },
    "request": {
      "method": "POST",
      "url": "Observation",
      "ifNoneExist": "identifier=https://mein.krankenhaus.de/fhir/NamingSystem/observationId|b3f71688cd54bdcefa836d18b9263c8ec728a9a4bbe17130fe2f40c4ee7ce2d0"
    }
  }, {
    "fullUrl": "Observation/c1c8dd6394db10b86ee4cb19cf75ea72678d24059fc2c6c73673e56d2e0cb3b2",
    "resource": {
      "resourceType": "Observation",
      "meta": {
        "profile": [ "https://www.medizininformatik-initiative.de/fhir/core/modul-labor/StructureDefinition/ObservationLab" ]
      },
      "identifier": [ {
        "type": {
          "coding": [ {
            "system": "http://terminology.hl7.org/CodeSystem/v2-0203",
            "code": "OBI",
            "display": "Observation Instance Identifier"
          } ]
        },
        "system": "https://mein.krankenhaus.de/fhir/NamingSystem/observationId",
        "value": "5d300c2afed742b6a5fe1e735523b2ee428b5681b243267a12eec82cd06fe8d8",
        "assigner": {
          "reference": "Organization/3a4f3433bce81181bad2d8e0b8fafccf7dc800bc06f29be73dcb38b750a48f9a"
        }
      } ],
      "status": "final",
      "category": [ {
        "coding": [ {
          "system": "http://terminology.hl7.org/CodeSystem/observation-category",
          "code": "laboratory",
          "display": "Laboratory"
        }, {
          "system": "http://loinc.org",
          "code": "26436-6"
        } ]
      } ],
      "code": {
        "coding": [ {
          "system": "http://loinc.org",
          "code": "30242-2",
          "display": "lactate-in-arterial-blood"
        } ],
        "text": "laktat"
      },
      "subject": {
        "reference": "Patient/329772ee46b8fb52fbc8569d5c0d0636ec4a97f950a07b65dce87dfff260401e"
      },
      "encounter": {
        "reference": "Encounter/012d5fc79be7afddb721915fcfd2cf3f312fb138a6ce7ec051c34ef595ed9eb8"
      },
      "effectiveDateTime": "2020-05-17T18:12:00+00:00",
      "valueQuantity": {
        "value": 22.372719768430514,
        "unit": "mg/dL",
        "system": "http://unitsofmeasure.org",
        "code": "mg/dL"
      }
    },
    "request": {
      "method": "POST",
      "url": "Observation",
      "ifNoneExist": "identifier=https://mein.krankenhaus.de/fhir/NamingSystem/observationId|c1c8dd6394db10b86ee4cb19cf75ea72678d24059fc2c6c73673e56d2e0cb3b2"
    }
  }, {
    "fullUrl": "Observation/c2d048da7127be19bb2c03bfab70d8292a05ef1049bf5b4a6d1d571e4d22a07e",
    "resource": {
      "resourceType": "Observation",
      "meta": {
        "profile": [ "https://www.medizininformatik-initiative.de/fhir/core/modul-labor/StructureDefinition/ObservationLab" ]
      },
      "identifier": [ {
        "type": {
          "coding": [ {
            "system": "http://terminology.hl7.org/CodeSystem/v2-0203",
            "code": "OBI",
            "display": "Observation Instance Identifier"
          } ]
        },
        "system": "https://mein.krankenhaus.de/fhir/NamingSystem/observationId",
        "value": "61a4c7804faa8d4284e90b1c4e9f0de1b6be81bd1c404e0804068e2a06a290fe",
        "assigner": {
          "reference": "Organization/3a4f3433bce81181bad2d8e0b8fafccf7dc800bc06f29be73dcb38b750a48f9a"
        }
      } ],
      "status": "final",
      "category": [ {
        "coding": [ {
          "system": "http://terminology.hl7.org/CodeSystem/observation-category",
          "code": "laboratory",
          "display": "Laboratory"
        }, {
          "system": "http://loinc.org",
          "code": "26436-6"
        } ]
      } ],
      "code": {
        "coding": [ {
          "system": "http://loinc.org",
          "code": "804-5",
          "display": "leukocytes-in-blood-by-manual-count"
        } ],
        "text": "leukozyten_absolut"
      },
      "subject": {
        "reference": "Patient/329772ee46b8fb52fbc8569d5c0d0636ec4a97f950a07b65dce87dfff260401e"
      },
      "encounter": {
        "reference": "Encounter/012d5fc79be7afddb721915fcfd2cf3f312fb138a6ce7ec051c34ef595ed9eb8"
      },
      "effectiveDateTime": "2020-05-17T18:12:00+00:00",
      "valueQuantity": {
        "value": 90.14733357759697,
        "unit": "10*3/uL",
        "system": "http://unitsofmeasure.org",
        "code": "10*3/uL"
      }
    },
    "request": {
      "method": "POST",
      "url": "Observation",
      "ifNoneExist": "identifier=https://mein.krankenhaus.de/fhir/NamingSystem/observationId|c2d048da7127be19bb2c03bfab70d8292a05ef1049bf5b4a6d1d571e4d22a07e"
    }
  }, {
    "fullUrl": "Observation/a5acf09d73f26f217e673974dfed912ec4c674badab97806b9ef579309ac33fe",
    "resource": {
      "resourceType": "Observation",
      "meta": {
        "profile": [ "https://www.medizininformatik-initiative.de/fhir/core/modul-labor/StructureDefinition/ObservationLab" ]
      },
      "identifier": [ {
        "type": {
          "coding": [ {
            "system": "http://terminology.hl7.org/CodeSystem/v2-0203",
            "code": "OBI",
            "display": "Observation Instance Identifier"
          } ]
        },
        "system": "https://mein.krankenhaus.de/fhir/NamingSystem/observationId",
        "value": "65d987f35f4731fd596b0f345d2a3f1f5da080fab465917302e9fa9ab43c48d8",
        "assigner": {
          "reference": "Organization/3a4f3433bce81181bad2d8e0b8fafccf7dc800bc06f29be73dcb38b750a48f9a"
        }
      } ],
      "status": "final",
      "category": [ {
        "coding": [ {
          "system": "http://terminology.hl7.org/CodeSystem/observation-category",
          "code": "laboratory",
          "display": "Laboratory"
        }, {
          "system": "http://loinc.org",
          "code": "26436-6"
        } ]
      } ],
      "code": {
        "coding": [ {
          "system": "http://loinc.org",
          "code": "30364-4",
          "display": "lymphocytes-in-blood-by-flow-cytometry-fc"
        } ],
        "text": "lymphozyten_absolut"
      },
      "subject": {
        "reference": "Patient/329772ee46b8fb52fbc8569d5c0d0636ec4a97f950a07b65dce87dfff260401e"
      },
      "encounter": {
        "reference": "Encounter/012d5fc79be7afddb721915fcfd2cf3f312fb138a6ce7ec051c34ef595ed9eb8"
      },
      "effectiveDateTime": "2020-05-17T18:12:00+00:00",
      "valueQuantity": {
        "value": 33.07412724789144,
        "unit": "10*3/uL",
        "system": "http://unitsofmeasure.org",
        "code": "10*3/uL"
      }
    },
    "request": {
      "method": "POST",
      "url": "Observation",
      "ifNoneExist": "identifier=https://mein.krankenhaus.de/fhir/NamingSystem/observationId|a5acf09d73f26f217e673974dfed912ec4c674badab97806b9ef579309ac33fe"
    }
  }, {
    "fullUrl": "Observation/83b8f12ad3ba24f0d3b7536a6c5f6e2bef884dd3f33e12e3e7618604de732527",
    "resource": {
      "resourceType": "Observation",
      "meta": {
        "profile": [ "https://www.medizininformatik-initiative.de/fhir/core/modul-labor/StructureDefinition/ObservationLab" ]
      },
      "identifier": [ {
        "type": {
          "coding": [ {
            "system": "http://terminology.hl7.org/CodeSystem/v2-0203",
            "code": "OBI",
            "display": "Observation Instance Identifier"
          } ]
        },
        "system": "https://mein.krankenhaus.de/fhir/NamingSystem/observationId",
        "value": "5fbab6ed1f9af3148476ce925cbbd7a753497a1e9e8987da7702db34f56c249e",
        "assigner": {
          "reference": "Organization/3a4f3433bce81181bad2d8e0b8fafccf7dc800bc06f29be73dcb38b750a48f9a"
        }
      } ],
      "status": "final",
      "category": [ {
        "coding": [ {
          "system": "http://terminology.hl7.org/CodeSystem/observation-category",
          "code": "laboratory",
          "display": "Laboratory"
        }, {
          "system": "http://loinc.org",
          "code": "26436-6"
        } ]
      } ],
      "code": {
        "coding": [ {
          "system": "http://loinc.org",
          "code": "753-4",
          "display": "neutrophils-in-blood-by-manual-count"
        } ],
        "text": "neutrophile_absolut"
      },
      "subject": {
        "reference": "Patient/329772ee46b8fb52fbc8569d5c0d0636ec4a97f950a07b65dce87dfff260401e"
      },
      "encounter": {
        "reference": "Encounter/012d5fc79be7afddb721915fcfd2cf3f312fb138a6ce7ec051c34ef595ed9eb8"
      },
      "effectiveDateTime": "2020-05-17T18:12:00+00:00",
      "valueQuantity": {
        "value": 55.29547126982707,
        "unit": "10*3/uL",
        "system": "http://unitsofmeasure.org",
        "code": "10*3/uL"
      }
    },
    "request": {
      "method": "POST",
      "url": "Observation",
      "ifNoneExist": "identifier=https://mein.krankenhaus.de/fhir/NamingSystem/observationId|83b8f12ad3ba24f0d3b7536a6c5f6e2bef884dd3f33e12e3e7618604de732527"
    }
  }, {
    "fullUrl": "Observation/fd71ddd5e4c9ed467a98685844a40e902ab0778b380a27b51c72ddf85c8b0dda",
    "resource": {
      "resourceType": "Observation",
      "meta": {
        "profile": [ "https://www.medizininformatik-initiative.de/fhir/core/modul-labor/StructureDefinition/ObservationLab" ]
      },
      "identifier": [ {
        "type": {
          "coding": [ {
            "system": "http://terminology.hl7.org/CodeSystem/v2-0203",
            "code": "OBI",
            "display": "Observation Instance Identifier"
          } ]
        },
        "system": "https://mein.krankenhaus.de/fhir/NamingSystem/observationId",
        "value": "5f5a669cfffb5c380054159a992f427ab0003fad643ac34769ce769beba70476",
        "assigner": {
          "reference": "Organization/3a4f3433bce81181bad2d8e0b8fafccf7dc800bc06f29be73dcb38b750a48f9a"
        }
      } ],
      "status": "final",
      "category": [ {
        "coding": [ {
          "system": "http://terminology.hl7.org/CodeSystem/observation-category",
          "code": "laboratory",
          "display": "Laboratory"
        }, {
          "system": "http://loinc.org",
          "code": "26436-6"
        } ]
      } ],
      "code": {
        "coding": [ {
          "system": "http://loinc.org",
          "code": "43734-3",
          "display": "aptt-in-platelet-poor-plasma-by-coagulation-11-saline"
        } ],
        "text": "ptt"
      },
      "subject": {
        "reference": "Patient/329772ee46b8fb52fbc8569d5c0d0636ec4a97f950a07b65dce87dfff260401e"
      },
      "encounter": {
        "reference": "Encounter/012d5fc79be7afddb721915fcfd2cf3f312fb138a6ce7ec051c34ef595ed9eb8"
      },
      "effectiveDateTime": "2020-05-17T18:12:00+00:00",
      "valueQuantity": {
        "value": 54.13768485169751,
        "unit": "s",
        "system": "http://unitsofmeasure.org",
        "code": "s"
      }
    },
    "request": {
      "method": "POST",
      "url": "Observation",
      "ifNoneExist": "identifier=https://mein.krankenhaus.de/fhir/NamingSystem/observationId|fd71ddd5e4c9ed467a98685844a40e902ab0778b380a27b51c72ddf85c8b0dda"
    }
  }, {
    "fullUrl": "Observation/808acf62dce989809870a39567be803436e520d3cae60ca5dbc9e6b2950f16e4",
    "resource": {
      "resourceType": "Observation",
      "meta": {
        "profile": [ "https://www.medizininformatik-initiative.de/fhir/core/modul-labor/StructureDefinition/ObservationLab" ]
      },
      "identifier": [ {
        "type": {
          "coding": [ {
            "system": "http://terminology.hl7.org/CodeSystem/v2-0203",
            "code": "OBI",
            "display": "Observation Instance Identifier"
          } ]
        },
        "system": "https://mein.krankenhaus.de/fhir/NamingSystem/observationId",
        "value": "9d75543f95826bd100d41c8ab685ea2471a0def83cbde6b4ad8f01a11ecba621",
        "assigner": {
          "reference": "Organization/3a4f3433bce81181bad2d8e0b8fafccf7dc800bc06f29be73dcb38b750a48f9a"
        }
      } ],
      "status": "final",
      "category": [ {
        "coding": [ {
          "system": "http://terminology.hl7.org/CodeSystem/observation-category",
          "code": "laboratory",
          "display": "Laboratory"
        }, {
          "system": "http://loinc.org",
          "code": "26436-6"
        } ]
      } ],
      "code": {
        "coding": [ {
          "system": "http://loinc.org",
          "code": "26515-7",
          "display": "platelets-in-blood"
        } ],
        "text": "thrombozyten_absolut"
      },
      "subject": {
        "reference": "Patient/329772ee46b8fb52fbc8569d5c0d0636ec4a97f950a07b65dce87dfff260401e"
      },
      "encounter": {
        "reference": "Encounter/012d5fc79be7afddb721915fcfd2cf3f312fb138a6ce7ec051c34ef595ed9eb8"
      },
      "effectiveDateTime": "2020-05-17T18:12:00+00:00",
      "valueQuantity": {
        "value": 72.81825712418775,
        "unit": "10*3/uL",
        "system": "http://unitsofmeasure.org",
        "code": "10*3/uL"
      }
    },
    "request": {
      "method": "POST",
      "url": "Observation",
      "ifNoneExist": "identifier=https://mein.krankenhaus.de/fhir/NamingSystem/observationId|808acf62dce989809870a39567be803436e520d3cae60ca5dbc9e6b2950f16e4"
    }
  }, {
    "fullUrl": "Observation/389c60a1af99c5297bcd2c6a8c996ca75953463043c7282426b0d74b3bde02ec",
    "resource": {
      "resourceType": "Observation",
      "meta": {
        "profile": [ "https://www.medizininformatik-initiative.de/fhir/core/modul-labor/StructureDefinition/ObservationLab" ]
      },
      "identifier": [ {
        "type": {
          "coding": [ {
            "system": "http://terminology.hl7.org/CodeSystem/v2-0203",
            "code": "OBI",
            "display": "Observation Instance Identifier"
          } ]
        },
        "system": "https://mein.krankenhaus.de/fhir/NamingSystem/observationId",
        "value": "f2f01c5480d0b8ec17817db477fc640eedb1453c32f300a0ad29ac6e6aedd3d8",
        "assigner": {
          "reference": "Organization/3a4f3433bce81181bad2d8e0b8fafccf7dc800bc06f29be73dcb38b750a48f9a"
        }
      } ],
      "status": "final",
      "category": [ {
        "coding": [ {
          "system": "http://terminology.hl7.org/CodeSystem/observation-category",
          "code": "laboratory",
          "display": "Laboratory"
        }, {
          "system": "http://loinc.org",
          "code": "26436-6"
        } ]
      } ],
      "code": {
        "coding": [ {
          "system": "http://loinc.org",
          "code": "6301-6",
          "display": "inr-in-platelet-poor-plasma-by-coagulation-assay"
        } ],
        "text": "inr"
      },
      "subject": {
        "reference": "Patient/329772ee46b8fb52fbc8569d5c0d0636ec4a97f950a07b65dce87dfff260401e"
      },
      "encounter": {
        "reference": "Encounter/012d5fc79be7afddb721915fcfd2cf3f312fb138a6ce7ec051c34ef595ed9eb8"
      },
      "effectiveDateTime": "2020-05-17T18:12:00+00:00",
      "valueQuantity": {
        "value": 69.3901498045083,
        "unit": "{INR}",
        "system": "http://unitsofmeasure.org",
        "code": "{INR}"
      }
    },
    "request": {
      "method": "POST",
      "url": "Observation",
      "ifNoneExist": "identifier=https://mein.krankenhaus.de/fhir/NamingSystem/observationId|389c60a1af99c5297bcd2c6a8c996ca75953463043c7282426b0d74b3bde02ec"
    }
  }, {
    "fullUrl": "Observation/6d38c707f216a2d7f16a25865105c68379d9dc01b57d75256ced418004ac99d9",
    "resource": {
      "resourceType": "Observation",
      "meta": {
        "profile": [ "https://www.medizininformatik-initiative.de/fhir/core/modul-labor/StructureDefinition/ObservationLab" ]
      },
      "identifier": [ {
        "type": {
          "coding": [ {
            "system": "http://terminology.hl7.org/CodeSystem/v2-0203",
            "code": "OBI",
            "display": "Observation Instance Identifier"
          } ]
        },
        "system": "https://mein.krankenhaus.de/fhir/NamingSystem/observationId",
        "value": "76ea0e6446fbed322ad2f10adc4b941dfc7aabd2b38eefd538388dc5235e6f3f",
        "assigner": {
          "reference": "Organization/3a4f3433bce81181bad2d8e0b8fafccf7dc800bc06f29be73dcb38b750a48f9a"
        }
      } ],
      "status": "final",
      "category": [ {
        "coding": [ {
          "system": "http://terminology.hl7.org/CodeSystem/observation-category",
          "code": "laboratory",
          "display": "Laboratory"
        }, {
          "system": "http://loinc.org",
          "code": "26436-6"
        } ]
      } ],
      "code": {
        "coding": [ {
          "system": "http://loinc.org",
          "code": "76631-1"
        }, {
          "system": "http://loinc.org",
          "code": "62235-7"
        }, {
          "system": "http://loinc.org",
          "code": "62234-0"
        }, {
          "system": "http://loinc.org",
          "code": "61152-5"
        }, {
          "system": "http://loinc.org",
          "code": "61151-7"
        }, {
          "system": "http://loinc.org",
          "code": "2862-1"
        }, {
          "system": "http://loinc.org",
          "code": "1751-7"
        }, {
          "system": "http://loinc.org",
          "code": "54347-0"
        } ],
        "text": "serumalbumin"
      },
      "subject": {
        "reference": "Patient/329772ee46b8fb52fbc8569d5c0d0636ec4a97f950a07b65dce87dfff260401e"
      },
      "encounter": {
        "reference": "Encounter/012d5fc79be7afddb721915fcfd2cf3f312fb138a6ce7ec051c34ef595ed9eb8"
      },
      "effectiveDateTime": "2020-05-17T18:12:00+00:00",
      "valueQuantity": {
        "value": 50.104557933889794,
        "unit": "umol/L",
        "system": "http://unitsofmeasure.org",
        "code": "umol/L"
      }
    },
    "request": {
      "method": "POST",
      "url": "Observation",
      "ifNoneExist": "identifier=https://mein.krankenhaus.de/fhir/NamingSystem/observationId|6d38c707f216a2d7f16a25865105c68379d9dc01b57d75256ced418004ac99d9"
    }
  }, {
    "fullUrl": "Observation/066b7f6656603f7affd5435851354843b45489b9ad84239cae4559c5b4a1b086",
    "resource": {
      "resourceType": "Observation",
      "meta": {
        "profile": [ "https://www.medizininformatik-initiative.de/fhir/core/modul-labor/StructureDefinition/ObservationLab" ]
      },
      "identifier": [ {
        "type": {
          "coding": [ {
            "system": "http://terminology.hl7.org/CodeSystem/v2-0203",
            "code": "OBI",
            "display": "Observation Instance Identifier"
          } ]
        },
        "system": "https://mein.krankenhaus.de/fhir/NamingSystem/observationId",
        "value": "c3db2c302563036fbee162e632b36e8a25cca0986915354abe804be929b85767",
        "assigner": {
          "reference": "Organization/3a4f3433bce81181bad2d8e0b8fafccf7dc800bc06f29be73dcb38b750a48f9a"
        }
      } ],
      "status": "final",
      "category": [ {
        "coding": [ {
          "system": "http://terminology.hl7.org/CodeSystem/observation-category",
          "code": "laboratory",
          "display": "Laboratory"
        }, {
          "system": "http://loinc.org",
          "code": "26436-6"
        } ]
      } ],
      "code": {
        "coding": [ {
          "system": "http://loinc.org",
          "code": "3174-0",
          "display": "antithrombin-in-platelet-poor-plasma-by-chromogenic-method"
        } ],
        "text": "antithrombin_iii"
      },
      "subject": {
        "reference": "Patient/329772ee46b8fb52fbc8569d5c0d0636ec4a97f950a07b65dce87dfff260401e"
      },
      "encounter": {
        "reference": "Encounter/012d5fc79be7afddb721915fcfd2cf3f312fb138a6ce7ec051c34ef595ed9eb8"
      },
      "effectiveDateTime": "2020-05-17T18:12:00+00:00",
      "valueQuantity": {
        "value": 61.829291550685625,
        "unit": "[IU]/mL",
        "system": "http://unitsofmeasure.org",
        "code": "[IU]/mL"
      }
    },
    "request": {
      "method": "POST",
      "url": "Observation",
      "ifNoneExist": "identifier=https://mein.krankenhaus.de/fhir/NamingSystem/observationId|066b7f6656603f7affd5435851354843b45489b9ad84239cae4559c5b4a1b086"
    }
  }, {
    "fullUrl": "Observation/1316319022157b639f25c13875bafec912758195086475203d8536edff6b4173",
    "resource": {
      "resourceType": "Observation",
      "meta": {
        "profile": [ "https://www.medizininformatik-initiative.de/fhir/core/modul-labor/StructureDefinition/ObservationLab" ]
      },
      "identifier": [ {
        "type": {
          "coding": [ {
            "system": "http://terminology.hl7.org/CodeSystem/v2-0203",
            "code": "OBI",
            "display": "Observation Instance Identifier"
          } ]
        },
        "system": "https://mein.krankenhaus.de/fhir/NamingSystem/observationId",
        "value": "6a26c5ef50cc05d345c1da4af196e935a4480ab1bc2e8edb65c555e96f511229",
        "assigner": {
          "reference": "Organization/3a4f3433bce81181bad2d8e0b8fafccf7dc800bc06f29be73dcb38b750a48f9a"
        }
      } ],
      "status": "final",
      "category": [ {
        "coding": [ {
          "system": "http://terminology.hl7.org/CodeSystem/observation-category",
          "code": "laboratory",
          "display": "Laboratory"
        }, {
          "system": "http://loinc.org",
          "code": "26436-6"
        } ]
      } ],
      "code": {
        "coding": [ {
          "system": "http://loinc.org",
          "code": "33959-8",
          "display": "procalcitonin-in-serum-or-plasma"
        } ],
        "text": "pct_procalcitonin"
      },
      "subject": {
        "reference": "Patient/329772ee46b8fb52fbc8569d5c0d0636ec4a97f950a07b65dce87dfff260401e"
      },
      "encounter": {
        "reference": "Encounter/012d5fc79be7afddb721915fcfd2cf3f312fb138a6ce7ec051c34ef595ed9eb8"
      },
      "effectiveDateTime": "2020-05-17T18:12:00+00:00",
      "valueQuantity": {
        "value": 10.065428112293295,
        "unit": "ng/mL",
        "system": "http://unitsofmeasure.org",
        "code": "ng/mL"
      }
    },
    "request": {
      "method": "POST",
      "url": "Observation",
      "ifNoneExist": "identifier=https://mein.krankenhaus.de/fhir/NamingSystem/observationId|1316319022157b639f25c13875bafec912758195086475203d8536edff6b4173"
    }
  }, {
    "fullUrl": "Observation/c71127378bc156a0d84857d8d6db5cc4ea00a0334cdc2c0a465686d9d2fc2da4",
    "resource": {
      "resourceType": "Observation",
      "meta": {
        "profile": [ "https://www.medizininformatik-initiative.de/fhir/core/modul-labor/StructureDefinition/ObservationLab" ]
      },
      "identifier": [ {
        "type": {
          "coding": [ {
            "system": "http://terminology.hl7.org/CodeSystem/v2-0203",
            "code": "OBI",
            "display": "Observation Instance Identifier"
          } ]
        },
        "system": "https://mein.krankenhaus.de/fhir/NamingSystem/observationId",
        "value": "fddbf72723ece2a07f3bb97e18ad4ddf65e15b0509f6665d252586e393502133",
        "assigner": {
          "reference": "Organization/3a4f3433bce81181bad2d8e0b8fafccf7dc800bc06f29be73dcb38b750a48f9a"
        }
      } ],
      "status": "final",
      "category": [ {
        "coding": [ {
          "system": "http://terminology.hl7.org/CodeSystem/observation-category",
          "code": "laboratory",
          "display": "Laboratory"
        }, {
          "system": "http://loinc.org",
          "code": "26436-6"
        } ]
      } ],
      "code": {
        "coding": [ {
          "system": "http://loinc.org",
          "code": "26881-3",
          "display": "interleukin-6-in-serum-or-plasma"
        } ],
        "text": "il6_interleukin_6"
      },
      "subject": {
        "reference": "Patient/329772ee46b8fb52fbc8569d5c0d0636ec4a97f950a07b65dce87dfff260401e"
      },
      "encounter": {
        "reference": "Encounter/012d5fc79be7afddb721915fcfd2cf3f312fb138a6ce7ec051c34ef595ed9eb8"
      },
      "effectiveDateTime": "2020-05-17T18:12:00+00:00",
      "valueQuantity": {
        "value": 57.25696243103656,
        "unit": "pg/mL",
        "system": "http://unitsofmeasure.org",
        "code": "pg/mL"
      }
    },
    "request": {
      "method": "POST",
      "url": "Observation",
      "ifNoneExist": "identifier=https://mein.krankenhaus.de/fhir/NamingSystem/observationId|c71127378bc156a0d84857d8d6db5cc4ea00a0334cdc2c0a465686d9d2fc2da4"
    }
  }, {
    "fullUrl": "Observation/288cbb1134e6bc219941499efae5d74323ac514a20326a3904511005be68fc69",
    "resource": {
      "resourceType": "Observation",
      "meta": {
        "profile": [ "https://www.medizininformatik-initiative.de/fhir/core/modul-labor/StructureDefinition/ObservationLab" ]
      },
      "identifier": [ {
        "type": {
          "coding": [ {
            "system": "http://terminology.hl7.org/CodeSystem/v2-0203",
            "code": "OBI",
            "display": "Observation Instance Identifier"
          } ]
        },
        "system": "https://mein.krankenhaus.de/fhir/NamingSystem/observationId",
        "value": "74fb24c3843c74e9a65e6f4237e9768777b5b0f8bcaa648aaa43a37331f78706",
        "assigner": {
          "reference": "Organization/3a4f3433bce81181bad2d8e0b8fafccf7dc800bc06f29be73dcb38b750a48f9a"
        }
      } ],
      "status": "final",
      "category": [ {
        "coding": [ {
          "system": "http://terminology.hl7.org/CodeSystem/observation-category",
          "code": "laboratory",
          "display": "Laboratory"
        }, {
          "system": "http://loinc.org",
          "code": "26436-6"
        } ]
      } ],
      "code": {
        "coding": [ {
          "system": "http://loinc.org",
          "code": "33762-6",
          "display": "natriuretic-peptide.b-prohormone-n-terminal-in-serum-or-plasma"
        } ],
        "text": "ntprobnp"
      },
      "subject": {
        "reference": "Patient/329772ee46b8fb52fbc8569d5c0d0636ec4a97f950a07b65dce87dfff260401e"
      },
      "encounter": {
        "reference": "Encounter/012d5fc79be7afddb721915fcfd2cf3f312fb138a6ce7ec051c34ef595ed9eb8"
      },
      "effectiveDateTime": "2020-05-17T18:12:00+00:00",
      "valueQuantity": {
        "value": 49.21655710595101,
        "unit": "pg/mL",
        "system": "http://unitsofmeasure.org",
        "code": "pg/mL"
      }
    },
    "request": {
      "method": "POST",
      "url": "Observation",
      "ifNoneExist": "identifier=https://mein.krankenhaus.de/fhir/NamingSystem/observationId|288cbb1134e6bc219941499efae5d74323ac514a20326a3904511005be68fc69"
    }
  }, {
    "fullUrl": "Observation/8ea7e341b7df6d125ffa2dc76fab9686b9bcbe3d150d18a5b843b1d9a5804e17",
    "resource": {
      "resourceType": "Observation",
      "meta": {
        "profile": [ "https://www.medizininformatik-initiative.de/fhir/core/modul-labor/StructureDefinition/ObservationLab" ]
      },
      "identifier": [ {
        "type": {
          "coding": [ {
            "system": "http://terminology.hl7.org/CodeSystem/v2-0203",
            "code": "OBI",
            "display": "Observation Instance Identifier"
          } ]
        },
        "system": "https://mein.krankenhaus.de/fhir/NamingSystem/observationId",
        "value": "2bddca8e335664bd3dde1196ee512e7a6c42acbdbc6d12ac1edda4239c3da790",
        "assigner": {
          "reference": "Organization/3a4f3433bce81181bad2d8e0b8fafccf7dc800bc06f29be73dcb38b750a48f9a"
        }
      } ],
      "status": "final",
      "category": [ {
        "coding": [ {
          "system": "http://terminology.hl7.org/CodeSystem/observation-category",
          "code": "laboratory",
          "display": "Laboratory"
        }, {
          "system": "http://loinc.org",
          "code": "26436-6"
        } ]
      } ],
      "code": {
        "coding": [ {
          "system": "http://loinc.org",
          "code": "48664-7",
          "display": "fibrinogen-in-platelet-poor-plasma-by-coagulation.derived"
        } ],
        "text": "fibrinogen"
      },
      "subject": {
        "reference": "Patient/329772ee46b8fb52fbc8569d5c0d0636ec4a97f950a07b65dce87dfff260401e"
      },
      "encounter": {
        "reference": "Encounter/012d5fc79be7afddb721915fcfd2cf3f312fb138a6ce7ec051c34ef595ed9eb8"
      },
      "effectiveDateTime": "2020-05-17T18:12:00+00:00",
      "valueQuantity": {
        "value": 76.8824796396037,
        "unit": "g/L",
        "system": "http://unitsofmeasure.org",
        "code": "g/L"
      }
    },
    "request": {
      "method": "POST",
      "url": "Observation",
      "ifNoneExist": "identifier=https://mein.krankenhaus.de/fhir/NamingSystem/observationId|8ea7e341b7df6d125ffa2dc76fab9686b9bcbe3d150d18a5b843b1d9a5804e17"
    }
  }, {
    "fullUrl": "Observation/85bfc72ef94e37d0b5e4ebbd69090ddec1ce8efaf0e3739b7e117474e8ff352b",
    "resource": {
      "resourceType": "Observation",
      "meta": {
        "profile": [ "https://www.netzwerk-universitaetsmedizin.de/fhir/StructureDefinition/sars-cov-2-rt-pcr" ]
      },
      "identifier": [ {
        "type": {
          "coding": [ {
            "system": "http://terminology.hl7.org/CodeSystem/v2-0203",
            "code": "OBI",
            "display": "Observation Instance Identifier"
          } ]
        },
        "system": "https://mein.krankenhaus.de/fhir/NamingSystem/observationId",
        "value": "01f4891b828ff19d51835ecdfbfecdd33c13511e8a9a94702895d5c3873b170d",
        "assigner": {
          "reference": "Organization/3a4f3433bce81181bad2d8e0b8fafccf7dc800bc06f29be73dcb38b750a48f9a"
        }
      } ],
      "status": "final",
      "category": [ {
        "coding": [ {
          "system": "http://terminology.hl7.org/CodeSystem/observation-category",
          "code": "laboratory",
          "display": "Laboratory"
        }, {
          "system": "http://loinc.org",
          "code": "26436-6"
        } ]
      } ],
      "code": {
        "coding": [ {
          "system": "http://loinc.org",
          "code": "94500-6",
          "display": "sars-cov-2-covid-19-rna-in-respiratory-specimen-by-naa-with-probe-detection"
        } ],
        "text": "SARS-CoV-2-RNA (PCR)"
      },
      "subject": {
        "reference": "Patient/329772ee46b8fb52fbc8569d5c0d0636ec4a97f950a07b65dce87dfff260401e"
      },
      "encounter": {
        "reference": "Encounter/012d5fc79be7afddb721915fcfd2cf3f312fb138a6ce7ec051c34ef595ed9eb8"
      },
      "effectiveDateTime": "2020-05-17T18:12:00+00:00",
      "valueCodeableConcept": {
        "coding": [ {
          "system": "http://snomed.info/sct",
          "code": "260373001",
          "display": "Detected (qualifier value)"
        } ],
        "text": "SARS-CoV-2-RNA positiv"
      }
    },
    "request": {
      "method": "POST",
      "url": "Observation",
      "ifNoneExist": "identifier=https://mein.krankenhaus.de/fhir/NamingSystem/observationId|85bfc72ef94e37d0b5e4ebbd69090ddec1ce8efaf0e3739b7e117474e8ff352b"
    }
  }, {
    "fullUrl": "Observation/e585e37b1410e91f8c04ec1c80f3864e0084a341dbbb882019dfc823708b958b",
    "resource": {
      "resourceType": "Observation",
      "meta": {
        "profile": [ "https://www.netzwerk-universitaetsmedizin.de/fhir/StructureDefinition/sars-cov-2-ab-pnl-ser-pl-ia" ]
      },
      "identifier": [ {
        "type": {
          "coding": [ {
            "system": "http://terminology.hl7.org/CodeSystem/v2-0203",
            "code": "OBI",
            "display": "Observation Instance Identifier"
          } ]
        },
        "system": "https://mein.krankenhaus.de/fhir/NamingSystem/observationId",
        "value": "7cc75b3e92f6b43a8bb689ad49b6b07cdff2b80e19b680c8bba24babb5961e9f",
        "assigner": {
          "reference": "Organization/3a4f3433bce81181bad2d8e0b8fafccf7dc800bc06f29be73dcb38b750a48f9a"
        }
      } ],
      "status": "final",
      "category": [ {
        "coding": [ {
          "system": "http://terminology.hl7.org/CodeSystem/observation-category",
          "code": "laboratory",
          "display": "Laboratory"
        }, {
          "system": "http://loinc.org",
          "code": "26436-6"
        } ]
      } ],
      "code": {
        "coding": [ {
          "system": "http://loinc.org",
          "code": "94504-8"
        } ],
        "text": "sarsco_v2_covid19_ab_pnl"
      },
      "subject": {
        "reference": "Patient/329772ee46b8fb52fbc8569d5c0d0636ec4a97f950a07b65dce87dfff260401e"
      },
      "encounter": {
        "reference": "Encounter/012d5fc79be7afddb721915fcfd2cf3f312fb138a6ce7ec051c34ef595ed9eb8"
      },
      "effectiveDateTime": "2020-05-17T18:12:00+00:00",
      "hasMember": [ {
        "reference": "Observation/6252d96491bd84e7845d59853b67fd225d668c2fd37968db66f669d04cb6ceb7"
      }, {
        "reference": "Observation/d09b530e92193ecff4d7902e1699d15021d584d992153f4a0e9d9b412aeec34b"
      }, {
        "reference": "Observation/f8e9f06542c423cc5ea343f89a8006924b44bc5e29f0a2b6d3b2b660d68e7d30"
      }, {
        "reference": "Observation/be24f966490f7994d0ee87fa79b72705c7278133a2711102e1d60b5c3fce8d6a"
      }, {
        "reference": "Observation/28b24515ab4a829b3c173cbb25552954b9b046740fe70e81f83fd1c0ea943950"
      }, {
        "reference": "Observation/5a25a5bc1c010a3e3092a44c42ccc6807fd144241bfb7bfbf69732c65aedc39e"
      }, {
        "reference": "Observation/043c3c58f3e5879af06cc8e188805c80bac172cb2d89f8ff01495e55eb5b993c"
      } ]
    },
    "request": {
      "method": "POST",
      "url": "Observation",
      "ifNoneExist": "identifier=https://mein.krankenhaus.de/fhir/NamingSystem/observationId|e585e37b1410e91f8c04ec1c80f3864e0084a341dbbb882019dfc823708b958b"
    }
  }, {
    "fullUrl": "Observation/6252d96491bd84e7845d59853b67fd225d668c2fd37968db66f669d04cb6ceb7",
    "resource": {
      "resourceType": "Observation",
      "meta": {
        "profile": [ "https://www.netzwerk-universitaetsmedizin.de/fhir/StructureDefinition/sars-cov-2-ab-ser-pl-ql-ia" ]
      },
      "identifier": [ {
        "type": {
          "coding": [ {
            "system": "http://terminology.hl7.org/CodeSystem/v2-0203",
            "code": "OBI",
            "display": "Observation Instance Identifier"
          } ]
        },
        "system": "https://mein.krankenhaus.de/fhir/NamingSystem/observationId",
        "value": "3f152c5df20f99f02976a5c684bff4b9fe76291906e66b4946950cc73e64e9bd",
        "assigner": {
          "reference": "Organization/3a4f3433bce81181bad2d8e0b8fafccf7dc800bc06f29be73dcb38b750a48f9a"
        }
      } ],
      "status": "final",
      "category": [ {
        "coding": [ {
          "system": "http://terminology.hl7.org/CodeSystem/observation-category",
          "code": "laboratory",
          "display": "Laboratory"
        }, {
          "system": "http://loinc.org",
          "code": "26436-6"
        } ]
      } ],
      "code": {
        "coding": [ {
          "system": "http://loinc.org",
          "code": "94762-2",
          "display": "sars-cov-2-covid-19-ab-in-serum-or-plasma-by-immunoassay"
        } ],
        "text": "sarsco_v2_covid19_ab_ia_ql"
      },
      "subject": {
        "reference": "Patient/329772ee46b8fb52fbc8569d5c0d0636ec4a97f950a07b65dce87dfff260401e"
      },
      "encounter": {
        "reference": "Encounter/012d5fc79be7afddb721915fcfd2cf3f312fb138a6ce7ec051c34ef595ed9eb8"
      },
      "effectiveDateTime": "2020-05-17T18:12:00+00:00",
      "valueCodeableConcept": {
        "coding": [ {
          "system": "http://snomed.info/sct",
          "code": "260415000"
        } ]
      }
    },
    "request": {
      "method": "POST",
      "url": "Observation",
      "ifNoneExist": "identifier=https://mein.krankenhaus.de/fhir/NamingSystem/observationId|6252d96491bd84e7845d59853b67fd225d668c2fd37968db66f669d04cb6ceb7"
    }
  }, {
    "fullUrl": "Observation/d09b530e92193ecff4d7902e1699d15021d584d992153f4a0e9d9b412aeec34b",
    "resource": {
      "resourceType": "Observation",
      "meta": {
        "profile": [ "https://www.netzwerk-universitaetsmedizin.de/fhir/StructureDefinition/sars-cov-2-ab-ser-pl-ia-acnc" ]
      },
      "identifier": [ {
        "type": {
          "coding": [ {
            "system": "http://terminology.hl7.org/CodeSystem/v2-0203",
            "code": "OBI",
            "display": "Observation Instance Identifier"
          } ]
        },
        "system": "https://mein.krankenhaus.de/fhir/NamingSystem/observationId",
        "value": "63c2621453a9757d7c26a189f993ab916e11a3cdf925108f9e794447b31ce323",
        "assigner": {
          "reference": "Organization/3a4f3433bce81181bad2d8e0b8fafccf7dc800bc06f29be73dcb38b750a48f9a"
        }
      } ],
      "status": "final",
      "category": [ {
        "coding": [ {
          "system": "http://terminology.hl7.org/CodeSystem/observation-category",
          "code": "laboratory",
          "display": "Laboratory"
        }, {
          "system": "http://loinc.org",
          "code": "26436-6"
        } ]
      } ],
      "code": {
        "coding": [ {
          "system": "http://loinc.org",
          "code": "94769-7",
          "display": "sars-cov-2-covid-19-ab-in-serum-or-plasma-by-immunoassay"
        } ],
        "text": "sarsco_v2_covid19_ab_ia_qn"
      },
      "subject": {
        "reference": "Patient/329772ee46b8fb52fbc8569d5c0d0636ec4a97f950a07b65dce87dfff260401e"
      },
      "encounter": {
        "reference": "Encounter/012d5fc79be7afddb721915fcfd2cf3f312fb138a6ce7ec051c34ef595ed9eb8"
      },
      "effectiveDateTime": "2020-05-17T18:12:00+00:00",
      "valueQuantity": {
        "value": 82.04290729464111,
        "unit": "[IU]/mL",
        "system": "http://unitsofmeasure.org",
        "code": "[IU]/mL"
      }
    },
    "request": {
      "method": "POST",
      "url": "Observation",
      "ifNoneExist": "identifier=https://mein.krankenhaus.de/fhir/NamingSystem/observationId|d09b530e92193ecff4d7902e1699d15021d584d992153f4a0e9d9b412aeec34b"
    }
  }, {
    "fullUrl": "Observation/f8e9f06542c423cc5ea343f89a8006924b44bc5e29f0a2b6d3b2b660d68e7d30",
    "resource": {
      "resourceType": "Observation",
      "meta": {
        "profile": [ "https://www.netzwerk-universitaetsmedizin.de/fhir/StructureDefinition/sars-cov-2-iga-ser-pl-ia-acnc" ]
      },
      "identifier": [ {
        "type": {
          "coding": [ {
            "system": "http://terminology.hl7.org/CodeSystem/v2-0203",
            "code": "OBI",
            "display": "Observation Instance Identifier"
          } ]
        },
        "system": "https://mein.krankenhaus.de/fhir/NamingSystem/observationId",
        "value": "2cc5e7435a2445d197c565db06bbd61a249539be9aff301eb5615cc2b78e0bc4",
        "assigner": {
          "reference": "Organization/3a4f3433bce81181bad2d8e0b8fafccf7dc800bc06f29be73dcb38b750a48f9a"
        }
      } ],
      "status": "final",
      "category": [ {
        "coding": [ {
          "system": "http://terminology.hl7.org/CodeSystem/observation-category",
          "code": "laboratory",
          "display": "Laboratory"
        }, {
          "system": "http://loinc.org",
          "code": "26436-6"
        } ]
      } ],
      "code": {
        "coding": [ {
          "system": "http://loinc.org",
          "code": "94720-0",
          "display": "sars-cov-2-covid-19-iga-ab-in-serum-or-plasma-by-immunoassay"
        } ],
        "text": "sarsco_v2_covid19_ig_a_ia_qn"
      },
      "subject": {
        "reference": "Patient/329772ee46b8fb52fbc8569d5c0d0636ec4a97f950a07b65dce87dfff260401e"
      },
      "encounter": {
        "reference": "Encounter/012d5fc79be7afddb721915fcfd2cf3f312fb138a6ce7ec051c34ef595ed9eb8"
      },
      "effectiveDateTime": "2020-05-17T18:12:00+00:00",
      "valueQuantity": {
        "value": 40.413117949535724,
        "unit": "[IU]/mL",
        "system": "http://unitsofmeasure.org",
        "code": "[IU]/mL"
      }
    },
    "request": {
      "method": "POST",
      "url": "Observation",
      "ifNoneExist": "identifier=https://mein.krankenhaus.de/fhir/NamingSystem/observationId|f8e9f06542c423cc5ea343f89a8006924b44bc5e29f0a2b6d3b2b660d68e7d30"
    }
  }, {
    "fullUrl": "Observation/be24f966490f7994d0ee87fa79b72705c7278133a2711102e1d60b5c3fce8d6a",
    "resource": {
      "resourceType": "Observation",
      "meta": {
        "profile": [ "https://www.netzwerk-universitaetsmedizin.de/fhir/StructureDefinition/sars-cov-2-igg-ser-pl-ql-ia" ]
      },
      "identifier": [ {
        "type": {
          "coding": [ {
            "system": "http://terminology.hl7.org/CodeSystem/v2-0203",
            "code": "OBI",
            "display": "Observation Instance Identifier"
          } ]
        },
        "system": "https://mein.krankenhaus.de/fhir/NamingSystem/observationId",
        "value": "434bb46032ff368183ddb7312fb7300535f2e8b83e41000608360457f12b95a4",
        "assigner": {
          "reference": "Organization/3a4f3433bce81181bad2d8e0b8fafccf7dc800bc06f29be73dcb38b750a48f9a"
        }
      } ],
      "status": "final",
      "category": [ {
        "coding": [ {
          "system": "http://terminology.hl7.org/CodeSystem/observation-category",
          "code": "laboratory",
          "display": "Laboratory"
        }, {
          "system": "http://loinc.org",
          "code": "26436-6"
        } ]
      } ],
      "code": {
        "coding": [ {
          "system": "http://loinc.org",
          "code": "94563-4",
          "display": "sars-cov-2-covid-19-igg-ab-in-serum-or-plasma-by-immunoassay"
        } ],
        "text": "sarsco_v2_covid19_ig_g_ia_ql"
      },
      "subject": {
        "reference": "Patient/329772ee46b8fb52fbc8569d5c0d0636ec4a97f950a07b65dce87dfff260401e"
      },
      "encounter": {
        "reference": "Encounter/012d5fc79be7afddb721915fcfd2cf3f312fb138a6ce7ec051c34ef595ed9eb8"
      },
      "effectiveDateTime": "2020-05-17T18:12:00+00:00",
      "valueCodeableConcept": {
        "coding": [ {
          "system": "http://snomed.info/sct",
          "code": "260415000"
        } ]
      }
    },
    "request": {
      "method": "POST",
      "url": "Observation",
      "ifNoneExist": "identifier=https://mein.krankenhaus.de/fhir/NamingSystem/observationId|be24f966490f7994d0ee87fa79b72705c7278133a2711102e1d60b5c3fce8d6a"
    }
  }, {
    "fullUrl": "Observation/28b24515ab4a829b3c173cbb25552954b9b046740fe70e81f83fd1c0ea943950",
    "resource": {
      "resourceType": "Observation",
      "meta": {
        "profile": [ "https://www.netzwerk-universitaetsmedizin.de/fhir/StructureDefinition/sars-cov-2-igg-ser-pl-ia-acnc" ]
      },
      "identifier": [ {
        "type": {
          "coding": [ {
            "system": "http://terminology.hl7.org/CodeSystem/v2-0203",
            "code": "OBI",
            "display": "Observation Instance Identifier"
          } ]
        },
        "system": "https://mein.krankenhaus.de/fhir/NamingSystem/observationId",
        "value": "37aa0a651042acfe8a0f7c7bf496fff1b441ee1799a2f0a7ff1f7ef72cbeab61",
        "assigner": {
          "reference": "Organization/3a4f3433bce81181bad2d8e0b8fafccf7dc800bc06f29be73dcb38b750a48f9a"
        }
      } ],
      "status": "final",
      "category": [ {
        "coding": [ {
          "system": "http://terminology.hl7.org/CodeSystem/observation-category",
          "code": "laboratory",
          "display": "Laboratory"
        }, {
          "system": "http://loinc.org",
          "code": "26436-6"
        } ]
      } ],
      "code": {
        "coding": [ {
          "system": "http://loinc.org",
          "code": "94505-5",
          "display": "sars-cov-2-covid-19-igg-ab-in-serum-or-plasma-by-immunoassay"
        } ],
        "text": "sarsco_v2_covid19_ig_g_ia_qn"
      },
      "subject": {
        "reference": "Patient/329772ee46b8fb52fbc8569d5c0d0636ec4a97f950a07b65dce87dfff260401e"
      },
      "encounter": {
        "reference": "Encounter/012d5fc79be7afddb721915fcfd2cf3f312fb138a6ce7ec051c34ef595ed9eb8"
      },
      "effectiveDateTime": "2020-05-17T18:12:00+00:00",
      "valueQuantity": {
        "value": 67.97693205985298,
        "unit": "[arb'U]/mL",
        "system": "http://unitsofmeasure.org",
        "code": "[arb'U]/mL"
      }
    },
    "request": {
      "method": "POST",
      "url": "Observation",
      "ifNoneExist": "identifier=https://mein.krankenhaus.de/fhir/NamingSystem/observationId|28b24515ab4a829b3c173cbb25552954b9b046740fe70e81f83fd1c0ea943950"
    }
  }, {
    "fullUrl": "Observation/5a25a5bc1c010a3e3092a44c42ccc6807fd144241bfb7bfbf69732c65aedc39e",
    "resource": {
      "resourceType": "Observation",
      "meta": {
        "profile": [ "https://www.netzwerk-universitaetsmedizin.de/fhir/StructureDefinition/sars-cov-2-igm-ser-pl-ql-ia" ]
      },
      "identifier": [ {
        "type": {
          "coding": [ {
            "system": "http://terminology.hl7.org/CodeSystem/v2-0203",
            "code": "OBI",
            "display": "Observation Instance Identifier"
          } ]
        },
        "system": "https://mein.krankenhaus.de/fhir/NamingSystem/observationId",
        "value": "60d2c7fcd4ca162c9309d94cf4a27e16ddd86a0c20ce267d09e8a18360d02b9c",
        "assigner": {
          "reference": "Organization/3a4f3433bce81181bad2d8e0b8fafccf7dc800bc06f29be73dcb38b750a48f9a"
        }
      } ],
      "status": "final",
      "category": [ {
        "coding": [ {
          "system": "http://terminology.hl7.org/CodeSystem/observation-category",
          "code": "laboratory",
          "display": "Laboratory"
        }, {
          "system": "http://loinc.org",
          "code": "26436-6"
        } ]
      } ],
      "code": {
        "coding": [ {
          "system": "http://loinc.org",
          "code": "94564-2",
          "display": "sars-cov-2-covid-19-igm-ab-in-serum-or-plasma-by-immunoassay"
        } ],
        "text": "sarsco_v2_covid19_ig_m_ia_ql"
      },
      "subject": {
        "reference": "Patient/329772ee46b8fb52fbc8569d5c0d0636ec4a97f950a07b65dce87dfff260401e"
      },
      "encounter": {
        "reference": "Encounter/012d5fc79be7afddb721915fcfd2cf3f312fb138a6ce7ec051c34ef595ed9eb8"
      },
      "effectiveDateTime": "2020-05-17T18:12:00+00:00",
      "valueCodeableConcept": {
        "coding": [ {
          "system": "http://snomed.info/sct",
          "code": "419984006"
        } ]
      }
    },
    "request": {
      "method": "POST",
      "url": "Observation",
      "ifNoneExist": "identifier=https://mein.krankenhaus.de/fhir/NamingSystem/observationId|5a25a5bc1c010a3e3092a44c42ccc6807fd144241bfb7bfbf69732c65aedc39e"
    }
  }, {
    "fullUrl": "Observation/043c3c58f3e5879af06cc8e188805c80bac172cb2d89f8ff01495e55eb5b993c",
    "resource": {
      "resourceType": "Observation",
      "meta": {
        "profile": [ "https://www.netzwerk-universitaetsmedizin.de/fhir/StructureDefinition/sars-cov-2-igm-ser-pl-ia-acnc" ]
      },
      "identifier": [ {
        "type": {
          "coding": [ {
            "system": "http://terminology.hl7.org/CodeSystem/v2-0203",
            "code": "OBI",
            "display": "Observation Instance Identifier"
          } ]
        },
        "system": "https://mein.krankenhaus.de/fhir/NamingSystem/observationId",
        "value": "b91a5e953517b47bcfb5d642a1cecc30f37100a844a8ad8243459f2fc7966d28",
        "assigner": {
          "reference": "Organization/3a4f3433bce81181bad2d8e0b8fafccf7dc800bc06f29be73dcb38b750a48f9a"
        }
      } ],
      "status": "final",
      "category": [ {
        "coding": [ {
          "system": "http://terminology.hl7.org/CodeSystem/observation-category",
          "code": "laboratory",
          "display": "Laboratory"
        }, {
          "system": "http://loinc.org",
          "code": "26436-6"
        } ]
      } ],
      "code": {
        "coding": [ {
          "system": "http://loinc.org",
          "code": "94506-3",
          "display": "sars-cov-2-covid-19-igm-ab-in-serum-or-plasma-by-immunoassay"
        } ],
        "text": "sarsco_v2_covid19_ig_m_ia_qn"
      },
      "subject": {
        "reference": "Patient/329772ee46b8fb52fbc8569d5c0d0636ec4a97f950a07b65dce87dfff260401e"
      },
      "encounter": {
        "reference": "Encounter/012d5fc79be7afddb721915fcfd2cf3f312fb138a6ce7ec051c34ef595ed9eb8"
      },
      "effectiveDateTime": "2020-05-17T18:12:00+00:00",
      "valueQuantity": {
        "value": 42.76201469085278,
        "unit": "[arb'U]/mL",
        "system": "http://unitsofmeasure.org",
        "code": "[arb'U]/mL"
      }
    },
    "request": {
      "method": "POST",
      "url": "Observation",
      "ifNoneExist": "identifier=https://mein.krankenhaus.de/fhir/NamingSystem/observationId|043c3c58f3e5879af06cc8e188805c80bac172cb2d89f8ff01495e55eb5b993c"
    }
  }, {
    "fullUrl": "MedicationStatement/b6139a26c9ab8e5f8731a8ab3729c690ef9581f0af1260732d450ae0cf318694",
    "resource": {
      "resourceType": "MedicationStatement",
      "meta": {
        "profile": [ "https://www.netzwerk-universitaetsmedizin.de/fhir/StructureDefinition/pharmacological-therapy" ]
      },
      "identifier": [ {
        "system": "https://mein.krankenhaus.de/fhir/NamingSystem/medicationstatementId",
        "value": "2e82989bb9058164f4b4526b2e8033aea290de71738c10c851e181c0fb2a8a46"
      } ],
      "status": "not-taken",
      "medicationCodeableConcept": {
        "coding": [ {
          "system": "http://fhir.de/CodeSystem/dimdi/atc",
          "code": "N02B"
        }, {
          "system": "https://www.netzwerk-universitaetsmedizin.de/fhir/CodeSystem/ecrf-parameter-codes",
          "code": "antipyretic"
        } ]
      },
      "subject": {
        "reference": "Patient/329772ee46b8fb52fbc8569d5c0d0636ec4a97f950a07b65dce87dfff260401e"
      },
      "effectiveDateTime": "2020-02-09T02:00:00+00:00"
    },
    "request": {
      "method": "POST",
      "url": "MedicationStatement",
      "ifNoneExist": "identifier=https://mein.krankenhaus.de/fhir/NamingSystem/medicationstatementId|b6139a26c9ab8e5f8731a8ab3729c690ef9581f0af1260732d450ae0cf318694"
    }
  }, {
    "fullUrl": "MedicationStatement/be3d40de2069a08562a0eb9efb5309e18093f5ddb059c46ebdd6c1eff5235358",
    "resource": {
      "resourceType": "MedicationStatement",
      "meta": {
        "profile": [ "https://www.netzwerk-universitaetsmedizin.de/fhir/StructureDefinition/pharmacological-therapy" ]
      },
      "identifier": [ {
        "system": "https://mein.krankenhaus.de/fhir/NamingSystem/medicationstatementId",
        "value": "a37fd99af7e0fe65d4e4ca0d1280d17fc5b4f4d12ff60289016adcbe740cd426"
      } ],
      "status": "not-taken",
      "medicationCodeableConcept": {
        "coding": [ {
          "system": "http://fhir.de/CodeSystem/dimdi/atc",
          "code": "J05AE08"
        }, {
          "system": "http://fhir.de/CodeSystem/dimdi/atc",
          "code": "J05AR15"
        }, {
          "system": "http://fhir.de/CodeSystem/dimdi/atc",
          "code": "J05AR23"
        }, {
          "system": "http://snomed.info/sct",
          "code": "413591007"
        } ]
      },
      "subject": {
        "reference": "Patient/329772ee46b8fb52fbc8569d5c0d0636ec4a97f950a07b65dce87dfff260401e"
      },
      "effectiveDateTime": "2020-02-09T02:00:00+00:00"
    },
    "request": {
      "method": "POST",
      "url": "MedicationStatement",
      "ifNoneExist": "identifier=https://mein.krankenhaus.de/fhir/NamingSystem/medicationstatementId|be3d40de2069a08562a0eb9efb5309e18093f5ddb059c46ebdd6c1eff5235358"
    }
  }, {
    "fullUrl": "MedicationStatement/3286a39aa8273d48d2306c8f694bf99fd60d20e2f56a749502f87c61878fb4ac",
    "resource": {
      "resourceType": "MedicationStatement",
      "meta": {
        "profile": [ "https://www.netzwerk-universitaetsmedizin.de/fhir/StructureDefinition/pharmacological-therapy" ]
      },
      "identifier": [ {
        "system": "https://mein.krankenhaus.de/fhir/NamingSystem/medicationstatementId",
        "value": "df061f1efb537d5f40bb94b0639733c6c1188ad1b3f6044c58dfa823feae5dce"
      } ],
      "status": "not-taken",
      "medicationCodeableConcept": {
        "coding": [ {
          "system": "http://fhir.de/CodeSystem/dimdi/atc",
          "code": "J05AR22"
        }, {
          "system": "http://fhir.de/CodeSystem/dimdi/atc",
          "code": "J05AE10"
        }, {
          "system": "http://fhir.de/CodeSystem/dimdi/atc",
          "code": "J05AR14"
        }, {
          "system": "http://snomed.info/sct",
          "code": "424096001"
        } ]
      },
      "subject": {
        "reference": "Patient/329772ee46b8fb52fbc8569d5c0d0636ec4a97f950a07b65dce87dfff260401e"
      },
      "effectiveDateTime": "2020-02-09T02:00:00+00:00"
    },
    "request": {
      "method": "POST",
      "url": "MedicationStatement",
      "ifNoneExist": "identifier=https://mein.krankenhaus.de/fhir/NamingSystem/medicationstatementId|3286a39aa8273d48d2306c8f694bf99fd60d20e2f56a749502f87c61878fb4ac"
    }
  }, {
    "fullUrl": "MedicationStatement/d8d0f5710ef7b042942ac58a63d5fbf1095b4235b2a89e07e73afea0f6650467",
    "resource": {
      "resourceType": "MedicationStatement",
      "meta": {
        "profile": [ "https://www.netzwerk-universitaetsmedizin.de/fhir/StructureDefinition/pharmacological-therapy" ]
      },
      "identifier": [ {
        "system": "https://mein.krankenhaus.de/fhir/NamingSystem/medicationstatementId",
        "value": "e72c1c9c33b70958d2f911e6799641fe9be383bf5551e50be6d17e98a5912300"
      } ],
      "status": "active",
      "medicationCodeableConcept": {
        "coding": [ {
          "system": "http://fhir.de/CodeSystem/dimdi/atc",
          "code": "P01BA01"
        }, {
          "system": "http://snomed.info/sct",
          "code": "14728000"
        } ]
      },
      "subject": {
        "reference": "Patient/329772ee46b8fb52fbc8569d5c0d0636ec4a97f950a07b65dce87dfff260401e"
      },
      "effectiveDateTime": "2020-02-09T02:00:00+00:00"
    },
    "request": {
      "method": "POST",
      "url": "MedicationStatement",
      "ifNoneExist": "identifier=https://mein.krankenhaus.de/fhir/NamingSystem/medicationstatementId|d8d0f5710ef7b042942ac58a63d5fbf1095b4235b2a89e07e73afea0f6650467"
    }
  }, {
    "fullUrl": "MedicationStatement/55a5a0b9e5c7d570c9a946d68de569bd2af62e5c376a1b3bd19b07f1f7603cf0",
    "resource": {
      "resourceType": "MedicationStatement",
      "meta": {
        "profile": [ "https://www.netzwerk-universitaetsmedizin.de/fhir/StructureDefinition/pharmacological-therapy" ]
      },
      "identifier": [ {
        "system": "https://mein.krankenhaus.de/fhir/NamingSystem/medicationstatementId",
        "value": "35ec9e3ed5b3c3f630d3d1de7a6832cd617f6808c1656efd92ba7ae0fdf7f1d6"
      } ],
      "status": "not-taken",
      "medicationCodeableConcept": {
        "coding": [ {
          "system": "http://fhir.de/CodeSystem/dimdi/atc",
          "code": "P01BA02"
        }, {
          "system": "http://snomed.info/sct",
          "code": "83490000"
        } ]
      },
      "subject": {
        "reference": "Patient/329772ee46b8fb52fbc8569d5c0d0636ec4a97f950a07b65dce87dfff260401e"
      },
      "effectiveDateTime": "2020-02-09T02:00:00+00:00"
    },
    "request": {
      "method": "POST",
      "url": "MedicationStatement",
      "ifNoneExist": "identifier=https://mein.krankenhaus.de/fhir/NamingSystem/medicationstatementId|55a5a0b9e5c7d570c9a946d68de569bd2af62e5c376a1b3bd19b07f1f7603cf0"
    }
  }, {
    "fullUrl": "MedicationStatement/3c6b4f63f4d7e60f3e58d241228b1e63aadc6e9e62dd5cba2c78320ef74c67ee",
    "resource": {
      "resourceType": "MedicationStatement",
      "meta": {
        "profile": [ "https://www.netzwerk-universitaetsmedizin.de/fhir/StructureDefinition/pharmacological-therapy" ]
      },
      "identifier": [ {
        "system": "https://mein.krankenhaus.de/fhir/NamingSystem/medicationstatementId",
        "value": "62e2af42ecbea53b818d010e0381e556d2d62f5674d0fd9a59e6570845e7b492"
      } ],
      "status": "unknown",
      "medicationCodeableConcept": {
        "coding": [ {
          "system": "http://fhir.de/CodeSystem/dimdi/atc",
          "code": "D11AX22"
        }, {
          "system": "http://fhir.de/CodeSystem/dimdi/atc",
          "code": "P02CF01"
        }, {
          "system": "http://snomed.info/sct",
          "code": "96138006"
        } ]
      },
      "subject": {
        "reference": "Patient/329772ee46b8fb52fbc8569d5c0d0636ec4a97f950a07b65dce87dfff260401e"
      },
      "effectiveDateTime": "2020-02-09T02:00:00+00:00"
    },
    "request": {
      "method": "POST",
      "url": "MedicationStatement",
      "ifNoneExist": "identifier=https://mein.krankenhaus.de/fhir/NamingSystem/medicationstatementId|3c6b4f63f4d7e60f3e58d241228b1e63aadc6e9e62dd5cba2c78320ef74c67ee"
    }
  }, {
    "fullUrl": "MedicationStatement/379d9661fb83890db1873d49ce5ca7745fab4cdf646133283cb171ef9b2ab0e9",
    "resource": {
      "resourceType": "MedicationStatement",
      "meta": {
        "profile": [ "https://www.netzwerk-universitaetsmedizin.de/fhir/StructureDefinition/pharmacological-therapy" ]
      },
      "identifier": [ {
        "system": "https://mein.krankenhaus.de/fhir/NamingSystem/medicationstatementId",
        "value": "8189cde3ed273c64921249d5f576c21356228101b64bba49a291de849c10fec2"
      } ],
      "status": "unknown",
      "medicationCodeableConcept": {
        "coding": [ {
          "system": "http://fhir.de/CodeSystem/dimdi/atc",
          "code": "J05AR10"
        }, {
          "system": "http://snomed.info/sct",
          "code": "134573001"
        } ]
      },
      "subject": {
        "reference": "Patient/329772ee46b8fb52fbc8569d5c0d0636ec4a97f950a07b65dce87dfff260401e"
      },
      "effectiveDateTime": "2020-02-09T02:00:00+00:00"
    },
    "request": {
      "method": "POST",
      "url": "MedicationStatement",
      "ifNoneExist": "identifier=https://mein.krankenhaus.de/fhir/NamingSystem/medicationstatementId|379d9661fb83890db1873d49ce5ca7745fab4cdf646133283cb171ef9b2ab0e9"
    }
  }, {
    "fullUrl": "MedicationStatement/20f89e1b1248914f2ba3c3de64e30480e76cd351bc3ce18dc335a8a793d51646",
    "resource": {
      "resourceType": "MedicationStatement",
      "meta": {
        "profile": [ "https://www.netzwerk-universitaetsmedizin.de/fhir/StructureDefinition/pharmacological-therapy" ]
      },
      "identifier": [ {
        "system": "https://mein.krankenhaus.de/fhir/NamingSystem/medicationstatementId",
        "value": "2ac774a408bbc03fe49eb13ecf3065483ba5d662fdea774a30c917bdfda0c9f0"
      } ],
      "status": "active",
      "medicationCodeableConcept": {
        "coding": [ {
          "system": "http://fhir.de/CodeSystem/dimdi/atc",
          "code": "J05AB06"
        }, {
          "system": "http://fhir.de/CodeSystem/dimdi/atc",
          "code": "S01AD09"
        }, {
          "system": "http://snomed.info/sct",
          "code": "78025001"
        } ]
      },
      "subject": {
        "reference": "Patient/329772ee46b8fb52fbc8569d5c0d0636ec4a97f950a07b65dce87dfff260401e"
      },
      "effectiveDateTime": "2020-02-09T02:00:00+00:00"
    },
    "request": {
      "method": "POST",
      "url": "MedicationStatement",
      "ifNoneExist": "identifier=https://mein.krankenhaus.de/fhir/NamingSystem/medicationstatementId|20f89e1b1248914f2ba3c3de64e30480e76cd351bc3ce18dc335a8a793d51646"
    }
  }, {
    "fullUrl": "MedicationStatement/ecffff63c99de215dda6b388b0b42ed281ae4c2ddfc28cfbe1c4bd72977c27cb",
    "resource": {
      "resourceType": "MedicationStatement",
      "meta": {
        "profile": [ "https://www.netzwerk-universitaetsmedizin.de/fhir/StructureDefinition/pharmacological-therapy" ]
      },
      "identifier": [ {
        "system": "https://mein.krankenhaus.de/fhir/NamingSystem/medicationstatementId",
        "value": "77ad8185bb2599f6f285e52fecff97f83ea90dcbe1970de986f61ba35e71d96a"
      } ],
      "status": "active",
      "medicationCodeableConcept": {
        "coding": [ {
          "system": "http://fhir.de/CodeSystem/dimdi/atc",
          "code": "J05AH02"
        }, {
          "system": "http://snomed.info/sct",
          "code": "386142008"
        } ]
      },
      "subject": {
        "reference": "Patient/329772ee46b8fb52fbc8569d5c0d0636ec4a97f950a07b65dce87dfff260401e"
      },
      "effectiveDateTime": "2020-02-09T02:00:00+00:00"
    },
    "request": {
      "method": "POST",
      "url": "MedicationStatement",
      "ifNoneExist": "identifier=https://mein.krankenhaus.de/fhir/NamingSystem/medicationstatementId|ecffff63c99de215dda6b388b0b42ed281ae4c2ddfc28cfbe1c4bd72977c27cb"
    }
  }, {
    "fullUrl": "MedicationStatement/3f1622d8f680c7815dfea67b29e70d1170acca6179462529faf959a2e63754eb",
    "resource": {
      "resourceType": "MedicationStatement",
      "meta": {
        "profile": [ "https://www.netzwerk-universitaetsmedizin.de/fhir/StructureDefinition/pharmacological-therapy" ]
      },
      "identifier": [ {
        "system": "https://mein.krankenhaus.de/fhir/NamingSystem/medicationstatementId",
        "value": "539717a7867c89524c5b62d5b35e27697aba6ffc24ff05db1d1bbf5b2d19cf74"
      } ],
      "status": "active",
      "medicationCodeableConcept": {
        "coding": [ {
          "system": "http://fdasis.nlm.nih.gov",
          "code": "3QKI37EEHE"
        }, {
          "system": "http://snomed.info/sct",
          "code": "870518005"
        } ]
      },
      "subject": {
        "reference": "Patient/329772ee46b8fb52fbc8569d5c0d0636ec4a97f950a07b65dce87dfff260401e"
      },
      "effectiveDateTime": "2020-02-09T02:00:00+00:00"
    },
    "request": {
      "method": "POST",
      "url": "MedicationStatement",
      "ifNoneExist": "identifier=https://mein.krankenhaus.de/fhir/NamingSystem/medicationstatementId|3f1622d8f680c7815dfea67b29e70d1170acca6179462529faf959a2e63754eb"
    }
  }, {
    "fullUrl": "MedicationStatement/525c726911b5bf900e00e24ffd8104a1ef1681da255a1b7b84d3a76155689ed6",
    "resource": {
      "resourceType": "MedicationStatement",
      "meta": {
        "profile": [ "https://www.netzwerk-universitaetsmedizin.de/fhir/StructureDefinition/pharmacological-therapy" ]
      },
      "identifier": [ {
        "system": "https://mein.krankenhaus.de/fhir/NamingSystem/medicationstatementId",
        "value": "9d8e8809c0f073c153a6330f9e8d804ef19dbbbeb6544ae5bc86eee3fae5d721"
      } ],
      "status": "active",
      "medicationCodeableConcept": {
        "coding": [ {
          "system": "http://fhir.de/CodeSystem/dimdi/atc",
          "code": "J05AP01"
        }, {
          "system": "http://snomed.info/sct",
          "code": "35063004"
        } ]
      },
      "subject": {
        "reference": "Patient/329772ee46b8fb52fbc8569d5c0d0636ec4a97f950a07b65dce87dfff260401e"
      },
      "effectiveDateTime": "2020-02-09T02:00:00+00:00"
    },
    "request": {
      "method": "POST",
      "url": "MedicationStatement",
      "ifNoneExist": "identifier=https://mein.krankenhaus.de/fhir/NamingSystem/medicationstatementId|525c726911b5bf900e00e24ffd8104a1ef1681da255a1b7b84d3a76155689ed6"
    }
  }, {
    "fullUrl": "MedicationStatement/f964d1c4134d82eaa73dec94cbff2c97aada4c89d5878637fe0b08f6f66219c0",
    "resource": {
      "resourceType": "MedicationStatement",
      "meta": {
        "profile": [ "https://www.netzwerk-universitaetsmedizin.de/fhir/StructureDefinition/pharmacological-therapy" ]
      },
      "identifier": [ {
        "system": "https://mein.krankenhaus.de/fhir/NamingSystem/medicationstatementId",
        "value": "756bdc8f3bb65a93e7217fb1704bff8b56d0d2c1dc00d04cd2a0e24247efce7f"
      } ],
      "status": "not-taken",
      "medicationCodeableConcept": {
        "coding": [ {
          "system": "http://fhir.de/CodeSystem/dimdi/atc",
          "code": "B02AB04"
        }, {
          "system": "https://www.netzwerk-universitaetsmedizin.de/fhir/CodeSystem/ecrf-parameter-codes",
          "code": "camostat"
        } ]
      },
      "subject": {
        "reference": "Patient/329772ee46b8fb52fbc8569d5c0d0636ec4a97f950a07b65dce87dfff260401e"
      },
      "effectiveDateTime": "2020-02-09T02:00:00+00:00"
    },
    "request": {
      "method": "POST",
      "url": "MedicationStatement",
      "ifNoneExist": "identifier=https://mein.krankenhaus.de/fhir/NamingSystem/medicationstatementId|f964d1c4134d82eaa73dec94cbff2c97aada4c89d5878637fe0b08f6f66219c0"
    }
  }, {
    "fullUrl": "MedicationStatement/a32816df58b39dbf7d1c6565ed79bbf8efa2f3cafc21c03661269a801c00ead6",
    "resource": {
      "resourceType": "MedicationStatement",
      "meta": {
        "profile": [ "https://www.netzwerk-universitaetsmedizin.de/fhir/StructureDefinition/pharmacological-therapy" ]
      },
      "identifier": [ {
        "system": "https://mein.krankenhaus.de/fhir/NamingSystem/medicationstatementId",
        "value": "f5b49d8b5ee8ead61ca32e1a7174cf8eb065fdd5395c1bb05f3d6155ea0c4864"
      } ],
      "status": "unknown",
      "medicationCodeableConcept": {
        "coding": [ {
          "system": "http://fhir.de/CodeSystem/dimdi/atc",
          "code": "J05AX27"
        }, {
          "system": "https://www.netzwerk-universitaetsmedizin.de/fhir/CodeSystem/ecrf-parameter-codes",
          "code": "favipiravir"
        } ]
      },
      "subject": {
        "reference": "Patient/329772ee46b8fb52fbc8569d5c0d0636ec4a97f950a07b65dce87dfff260401e"
      },
      "effectiveDateTime": "2020-02-09T02:00:00+00:00"
    },
    "request": {
      "method": "POST",
      "url": "MedicationStatement",
      "ifNoneExist": "identifier=https://mein.krankenhaus.de/fhir/NamingSystem/medicationstatementId|a32816df58b39dbf7d1c6565ed79bbf8efa2f3cafc21c03661269a801c00ead6"
    }
  }, {
    "fullUrl": "MedicationStatement/1e051617bc99fa229e879699cbb0aba0c5474023282b835492b17f236f922e4c",
    "resource": {
      "resourceType": "MedicationStatement",
      "meta": {
        "profile": [ "https://www.netzwerk-universitaetsmedizin.de/fhir/StructureDefinition/pharmacological-therapy" ]
      },
      "identifier": [ {
        "system": "https://mein.krankenhaus.de/fhir/NamingSystem/medicationstatementId",
        "value": "5d2b53f044c61d764c25d0e4a9b4a690a88d0f20f4da2cc04b586ef5a58ce014"
      } ],
      "status": "not-taken",
      "medicationCodeableConcept": {
        "coding": [ {
          "system": "urn:oid:2.16.840.1.113883.6.18.2.6",
          "code": "E9743"
        }, {
          "system": "urn:oid:2.16.840.1.113883.6.18.2.6",
          "code": "E9744"
        }, {
          "system": "urn:oid:2.16.840.1.113883.6.18.2.6",
          "code": "E9745"
        }, {
          "system": "urn:oid:2.16.840.1.113883.6.18.2.6",
          "code": "E9746"
        }, {
          "system": "urn:oid:2.16.840.1.113883.6.18.2.6",
          "code": "E9747"
        }, {
          "system": "urn:oid:2.16.840.1.113883.6.18.2.6",
          "code": "E9748"
        }, {
          "system": "urn:oid:2.16.840.1.113883.6.18.2.6",
          "code": "E9749"
        }, {
          "system": "urn:oid:2.16.840.1.113883.6.18.2.6",
          "code": "E9750"
        }, {
          "system": "urn:oid:2.16.840.1.113883.6.18.2.6",
          "code": "E9752"
        }, {
          "system": "https://www.netzwerk-universitaetsmedizin.de/fhir/CodeSystem/ecrf-parameter-codes",
          "code": "convalescent-plasma"
        } ]
      },
      "subject": {
        "reference": "Patient/329772ee46b8fb52fbc8569d5c0d0636ec4a97f950a07b65dce87dfff260401e"
      },
      "effectiveDateTime": "2020-02-09T02:00:00+00:00"
    },
    "request": {
      "method": "POST",
      "url": "MedicationStatement",
      "ifNoneExist": "identifier=https://mein.krankenhaus.de/fhir/NamingSystem/medicationstatementId|1e051617bc99fa229e879699cbb0aba0c5474023282b835492b17f236f922e4c"
    }
  }, {
    "fullUrl": "MedicationStatement/613cfe8ba44c2a1b034669be390c0f14bbc910dfb9aba3248e419474c81ff72e",
    "resource": {
      "resourceType": "MedicationStatement",
      "meta": {
        "profile": [ "https://www.netzwerk-universitaetsmedizin.de/fhir/StructureDefinition/pharmacological-therapy" ]
      },
      "identifier": [ {
        "system": "https://mein.krankenhaus.de/fhir/NamingSystem/medicationstatementId",
        "value": "af0671c728b1dcd415b10bfec947a3d5576b73a867234e5224e24dbfe92e615e"
      } ],
      "status": "not-taken",
      "medicationCodeableConcept": {
        "coding": [ {
          "system": "https://www.netzwerk-universitaetsmedizin.de/fhir/CodeSystem/ecrf-parameter-codes",
          "code": "steroids-gt"
        } ]
      },
      "subject": {
        "reference": "Patient/329772ee46b8fb52fbc8569d5c0d0636ec4a97f950a07b65dce87dfff260401e"
      },
      "effectiveDateTime": "2020-02-09T02:00:00+00:00"
    },
    "request": {
      "method": "POST",
      "url": "MedicationStatement",
      "ifNoneExist": "identifier=https://mein.krankenhaus.de/fhir/NamingSystem/medicationstatementId|613cfe8ba44c2a1b034669be390c0f14bbc910dfb9aba3248e419474c81ff72e"
    }
  }, {
    "fullUrl": "MedicationStatement/817f2ecb7e898ab83907f70998fbae58077293554f0aecd1f1652b03fdc3f84b",
    "resource": {
      "resourceType": "MedicationStatement",
      "meta": {
        "profile": [ "https://www.netzwerk-universitaetsmedizin.de/fhir/StructureDefinition/pharmacological-therapy" ]
      },
      "identifier": [ {
        "system": "https://mein.krankenhaus.de/fhir/NamingSystem/medicationstatementId",
        "value": "52007551a58e0c48345d11c7ef3ce31aa8cbce8545c0b76ba69af331f7752dfa"
      } ],
      "status": "unknown",
      "medicationCodeableConcept": {
        "coding": [ {
          "system": "https://www.netzwerk-universitaetsmedizin.de/fhir/CodeSystem/ecrf-parameter-codes",
          "code": "steroids-lt"
        } ]
      },
      "subject": {
        "reference": "Patient/329772ee46b8fb52fbc8569d5c0d0636ec4a97f950a07b65dce87dfff260401e"
      },
      "effectiveDateTime": "2020-02-09T02:00:00+00:00"
    },
    "request": {
      "method": "POST",
      "url": "MedicationStatement",
      "ifNoneExist": "identifier=https://mein.krankenhaus.de/fhir/NamingSystem/medicationstatementId|817f2ecb7e898ab83907f70998fbae58077293554f0aecd1f1652b03fdc3f84b"
    }
  }, {
    "fullUrl": "MedicationStatement/4c2ae68fdf12f31c76101a910f0268ab061162e27c96407106dae3aae82ce239",
    "resource": {
      "resourceType": "MedicationStatement",
      "meta": {
        "profile": [ "https://www.netzwerk-universitaetsmedizin.de/fhir/StructureDefinition/pharmacological-therapy" ]
      },
      "identifier": [ {
        "system": "https://mein.krankenhaus.de/fhir/NamingSystem/medicationstatementId",
        "value": "ddab47eee154178d238b16726ad0b826064e14fb86892a11262b20291aabfe7b"
      } ],
      "status": "active",
      "medicationCodeableConcept": {
        "coding": [ {
          "system": "http://fhir.de/CodeSystem/dimdi/atc",
          "code": "L04AC07"
        } ]
      },
      "subject": {
        "reference": "Patient/329772ee46b8fb52fbc8569d5c0d0636ec4a97f950a07b65dce87dfff260401e"
      },
      "effectiveDateTime": "2020-02-09T02:00:00+00:00"
    },
    "request": {
      "method": "POST",
      "url": "MedicationStatement",
      "ifNoneExist": "identifier=https://mein.krankenhaus.de/fhir/NamingSystem/medicationstatementId|4c2ae68fdf12f31c76101a910f0268ab061162e27c96407106dae3aae82ce239"
    }
  }, {
    "fullUrl": "MedicationStatement/492442e9317ca7dc742484c5267eb680be85a2d9733a87effb28f563687acf12",
    "resource": {
      "resourceType": "MedicationStatement",
      "meta": {
        "profile": [ "https://www.netzwerk-universitaetsmedizin.de/fhir/StructureDefinition/pharmacological-therapy" ]
      },
      "identifier": [ {
        "system": "https://mein.krankenhaus.de/fhir/NamingSystem/medicationstatementId",
        "value": "61f9a7fea371724a276e42bfc26252ae7b4c491648e2fb26cae41ef2c6142fa9"
      } ],
      "status": "not-taken",
      "medicationCodeableConcept": {
        "coding": [ {
          "system": "http://fhir.de/CodeSystem/dimdi/ops",
          "code": "6-00a.g"
        }, {
          "system": "http://fhir.de/CodeSystem/dimdi/atc",
          "code": "L04AC14"
        }, {
          "system": "http://snomed.info/sct",
          "code": "763522001"
        } ]
      },
      "subject": {
        "reference": "Patient/329772ee46b8fb52fbc8569d5c0d0636ec4a97f950a07b65dce87dfff260401e"
      },
      "effectiveDateTime": "2020-02-09T02:00:00+00:00"
    },
    "request": {
      "method": "POST",
      "url": "MedicationStatement",
      "ifNoneExist": "identifier=https://mein.krankenhaus.de/fhir/NamingSystem/medicationstatementId|492442e9317ca7dc742484c5267eb680be85a2d9733a87effb28f563687acf12"
    }
  }, {
    "fullUrl": "MedicationStatement/5b6150339fcff82091063d9f5f85daad8f8b731e6408f52982fc31a7dbafa3bf",
    "resource": {
      "resourceType": "MedicationStatement",
      "meta": {
        "profile": [ "https://www.netzwerk-universitaetsmedizin.de/fhir/StructureDefinition/pharmacological-therapy" ]
      },
      "identifier": [ {
        "system": "https://mein.krankenhaus.de/fhir/NamingSystem/medicationstatementId",
        "value": "8e1e825cfc0608309413461093dd317bdde1b1b25301e986fa7f2823749ce059"
      } ],
      "status": "not-taken",
      "medicationCodeableConcept": {
        "coding": [ {
          "system": "http://fhir.de/CodeSystem/dimdi/ops",
          "code": "6-005.8"
        }, {
          "system": "http://fhir.de/CodeSystem/dimdi/ops",
          "code": "6-004.e"
        }, {
          "system": "http://fhir.de/CodeSystem/dimdi/atc",
          "code": "L01XE10"
        }, {
          "system": "http://fhir.de/CodeSystem/dimdi/atc",
          "code": "S01XA18"
        }, {
          "system": "http://fhir.de/CodeSystem/dimdi/atc",
          "code": "L01XE18"
        }, {
          "system": "http://fhir.de/CodeSystem/dimdi/atc",
          "code": "L04AA18"
        }, {
          "system": "http://fhir.de/CodeSystem/dimdi/atc",
          "code": "L04AA10"
        }, {
          "system": "http://fhir.de/CodeSystem/dimdi/atc",
          "code": "D11AH01"
        }, {
          "system": "http://fhir.de/CodeSystem/dimdi/atc",
          "code": "L04AD"
        }, {
          "system": "http://fhir.de/CodeSystem/dimdi/atc",
          "code": "L04AB"
        }, {
          "system": "http://snomed.info/sct",
          "code": "416587008"
        } ]
      },
      "subject": {
        "reference": "Patient/329772ee46b8fb52fbc8569d5c0d0636ec4a97f950a07b65dce87dfff260401e"
      },
      "effectiveDateTime": "2020-02-09T02:00:00+00:00"
    },
    "request": {
      "method": "POST",
      "url": "MedicationStatement",
      "ifNoneExist": "identifier=https://mein.krankenhaus.de/fhir/NamingSystem/medicationstatementId|5b6150339fcff82091063d9f5f85daad8f8b731e6408f52982fc31a7dbafa3bf"
    }
  }, {
    "fullUrl": "MedicationStatement/eefd854cded5846d03a75c991128554405103cf0df2cb3c7ceaddc79cb4f1955",
    "resource": {
      "resourceType": "MedicationStatement",
      "meta": {
        "profile": [ "https://www.netzwerk-universitaetsmedizin.de/fhir/StructureDefinition/pharmacological-therapy" ]
      },
      "identifier": [ {
        "system": "https://mein.krankenhaus.de/fhir/NamingSystem/medicationstatementId",
        "value": "ca222e8922919e82fc2c449e4cbe1b2d3ce53391c51d64135872ee4b47a9b760"
      } ],
      "status": "active",
      "medicationCodeableConcept": {
        "coding": [ {
          "system": "http://fhir.de/CodeSystem/dimdi/ops",
          "code": "6-001.d"
        } ]
      },
      "subject": {
        "reference": "Patient/329772ee46b8fb52fbc8569d5c0d0636ec4a97f950a07b65dce87dfff260401e"
      },
      "effectiveDateTime": "2020-02-09T02:00:00+00:00"
    },
    "request": {
      "method": "POST",
      "url": "MedicationStatement",
      "ifNoneExist": "identifier=https://mein.krankenhaus.de/fhir/NamingSystem/medicationstatementId|eefd854cded5846d03a75c991128554405103cf0df2cb3c7ceaddc79cb4f1955"
    }
  }, {
    "fullUrl": "MedicationStatement/9d446c6efe8cd8ff0547680112f4f7ad49ab19bf0a03d341a73716417dbe344f",
    "resource": {
      "resourceType": "MedicationStatement",
      "meta": {
        "profile": [ "https://www.netzwerk-universitaetsmedizin.de/fhir/StructureDefinition/pharmacological-therapy" ]
      },
      "identifier": [ {
        "system": "https://mein.krankenhaus.de/fhir/NamingSystem/medicationstatementId",
        "value": "30607ac77613cd684b70868ca46cf7ef87732677fb3d6df3f1d4f6e017f608c0"
      } ],
      "status": "active",
      "medicationCodeableConcept": {
        "coding": [ {
          "system": "http://fhir.de/CodeSystem/dimdi/ops",
          "code": "6-006.7"
        }, {
          "system": "http://fhir.de/CodeSystem/dimdi/atc",
          "code": "L04AC"
        }, {
          "system": "http://snomed.info/sct",
          "code": "430817009"
        } ]
      },
      "subject": {
        "reference": "Patient/329772ee46b8fb52fbc8569d5c0d0636ec4a97f950a07b65dce87dfff260401e"
      },
      "effectiveDateTime": "2020-02-09T02:00:00+00:00"
    },
    "request": {
      "method": "POST",
      "url": "MedicationStatement",
      "ifNoneExist": "identifier=https://mein.krankenhaus.de/fhir/NamingSystem/medicationstatementId|9d446c6efe8cd8ff0547680112f4f7ad49ab19bf0a03d341a73716417dbe344f"
    }
  }, {
    "fullUrl": "MedicationStatement/b210f911fd8411528085f9a9a617f85a27e3fd9154c8e1f0c7f8f6a662caec6d",
    "resource": {
      "resourceType": "MedicationStatement",
      "meta": {
        "profile": [ "https://www.netzwerk-universitaetsmedizin.de/fhir/StructureDefinition/pharmacological-therapy" ]
      },
      "identifier": [ {
        "system": "https://mein.krankenhaus.de/fhir/NamingSystem/medicationstatementId",
        "value": "9fc5538d3eae3343e6599d58f828fef237f1f486ba4f54986137119425c822d0"
      } ],
      "status": "unknown",
      "medicationCodeableConcept": {
        "coding": [ {
          "system": "http://fhir.de/CodeSystem/dimdi/ops",
          "code": "6-009.4"
        }, {
          "system": "http://snomed.info/sct",
          "code": "703779004"
        } ]
      },
      "subject": {
        "reference": "Patient/329772ee46b8fb52fbc8569d5c0d0636ec4a97f950a07b65dce87dfff260401e"
      },
      "effectiveDateTime": "2020-02-09T02:00:00+00:00"
    },
    "request": {
      "method": "POST",
      "url": "MedicationStatement",
      "ifNoneExist": "identifier=https://mein.krankenhaus.de/fhir/NamingSystem/medicationstatementId|b210f911fd8411528085f9a9a617f85a27e3fd9154c8e1f0c7f8f6a662caec6d"
    }
  }, {
    "fullUrl": "MedicationStatement/ca091de28f5e099163b3218496ca83402335a8d9bd627f6b341d69059fd169cf",
    "resource": {
      "resourceType": "MedicationStatement",
      "meta": {
        "profile": [ "https://www.netzwerk-universitaetsmedizin.de/fhir/StructureDefinition/pharmacological-therapy" ]
      },
      "identifier": [ {
        "system": "https://mein.krankenhaus.de/fhir/NamingSystem/medicationstatementId",
        "value": "c909122a285dcd0ff664801ccefcbbaaf30d0bc29340fc3080bd90a173ba6976"
      } ],
      "status": "active",
      "medicationCodeableConcept": {
        "coding": [ {
          "system": "http://fhir.de/CodeSystem/dimdi/atc",
          "code": "M04AC01"
        }, {
          "system": "http://snomed.info/sct",
          "code": "73133000"
        } ]
      },
      "subject": {
        "reference": "Patient/329772ee46b8fb52fbc8569d5c0d0636ec4a97f950a07b65dce87dfff260401e"
      },
      "effectiveDateTime": "2020-02-09T02:00:00+00:00"
    },
    "request": {
      "method": "POST",
      "url": "MedicationStatement",
      "ifNoneExist": "identifier=https://mein.krankenhaus.de/fhir/NamingSystem/medicationstatementId|ca091de28f5e099163b3218496ca83402335a8d9bd627f6b341d69059fd169cf"
    }
  }, {
    "fullUrl": "MedicationStatement/af796142b0270ad265453b75365bb9562bae8e950d759e731877632b6e811d54",
    "resource": {
      "resourceType": "MedicationStatement",
      "meta": {
        "profile": [ "https://www.netzwerk-universitaetsmedizin.de/fhir/StructureDefinition/pharmacological-therapy" ]
      },
      "identifier": [ {
        "system": "https://mein.krankenhaus.de/fhir/NamingSystem/medicationstatementId",
        "value": "4b38804444b3d7ff6ff53ed99bcf54a9f47f9bd5f62df867a994ba630241ee58"
      } ],
      "status": "active",
      "medicationCodeableConcept": {
        "coding": [ {
          "system": "http://fhir.de/CodeSystem/dimdi/atc",
          "code": "S01AD05"
        }, {
          "system": "http://snomed.info/sct",
          "code": "768865007"
        } ]
      },
      "subject": {
        "reference": "Patient/329772ee46b8fb52fbc8569d5c0d0636ec4a97f950a07b65dce87dfff260401e"
      },
      "effectiveDateTime": "2020-02-09T02:00:00+00:00"
    },
    "request": {
      "method": "POST",
      "url": "MedicationStatement",
      "ifNoneExist": "identifier=https://mein.krankenhaus.de/fhir/NamingSystem/medicationstatementId|af796142b0270ad265453b75365bb9562bae8e950d759e731877632b6e811d54"
    }
  }, {
    "fullUrl": "MedicationStatement/ecf50b19e74b3ed032cb41d0ba21d58b26624bff2b9a9c9a8e5ff3550537f00d",
    "resource": {
      "resourceType": "MedicationStatement",
      "meta": {
        "profile": [ "https://www.netzwerk-universitaetsmedizin.de/fhir/StructureDefinition/pharmacological-therapy" ]
      },
      "identifier": [ {
        "system": "https://mein.krankenhaus.de/fhir/NamingSystem/medicationstatementId",
        "value": "a58fa4f5fe020585c1dc34bb2baad26a4dc337623f8b3ae02fd5011087b2392b"
      } ],
      "status": "active",
      "medicationCodeableConcept": {
        "coding": [ {
          "system": "http://fhir.de/CodeSystem/dimdi/atc",
          "code": "A11CC06"
        }, {
          "system": "http://snomed.info/sct",
          "code": "88519001"
        } ]
      },
      "subject": {
        "reference": "Patient/329772ee46b8fb52fbc8569d5c0d0636ec4a97f950a07b65dce87dfff260401e"
      },
      "effectiveDateTime": "2020-02-09T02:00:00+00:00"
    },
    "request": {
      "method": "POST",
      "url": "MedicationStatement",
      "ifNoneExist": "identifier=https://mein.krankenhaus.de/fhir/NamingSystem/medicationstatementId|ecf50b19e74b3ed032cb41d0ba21d58b26624bff2b9a9c9a8e5ff3550537f00d"
    }
  }, {
    "fullUrl": "MedicationStatement/9c74acecb7970b42e5fc7838ba562d04da9558454e86d939d707ebddd185f11b",
    "resource": {
      "resourceType": "MedicationStatement",
      "meta": {
        "profile": [ "https://www.netzwerk-universitaetsmedizin.de/fhir/StructureDefinition/pharmacological-therapy" ]
      },
      "identifier": [ {
        "system": "https://mein.krankenhaus.de/fhir/NamingSystem/medicationstatementId",
        "value": "e82a9d975aadd2755871af6fd42ebcdfca6de5d7bc46daf58b1233ff43c7687d"
      } ],
      "status": "unknown",
      "medicationCodeableConcept": {
        "coding": [ {
          "system": "http://fhir.de/CodeSystem/dimdi/atc",
          "code": "A12CB"
        }, {
          "system": "http://snomed.info/sct",
          "code": "764877006"
        } ]
      },
      "subject": {
        "reference": "Patient/329772ee46b8fb52fbc8569d5c0d0636ec4a97f950a07b65dce87dfff260401e"
      },
      "effectiveDateTime": "2020-02-09T02:00:00+00:00"
    },
    "request": {
      "method": "POST",
      "url": "MedicationStatement",
      "ifNoneExist": "identifier=https://mein.krankenhaus.de/fhir/NamingSystem/medicationstatementId|9c74acecb7970b42e5fc7838ba562d04da9558454e86d939d707ebddd185f11b"
    }
  }, {
    "fullUrl": "MedicationStatement/b71870ae0c1ecfc809b058ed67602b71fc494b0cf349f04431eb6a923506b4ef",
    "resource": {
      "resourceType": "MedicationStatement",
      "meta": {
        "profile": [ "https://www.netzwerk-universitaetsmedizin.de/fhir/StructureDefinition/pharmacological-therapy" ]
      },
      "identifier": [ {
        "system": "https://mein.krankenhaus.de/fhir/NamingSystem/medicationstatementId",
        "value": "98af20b9821e9a9bfd4d76c7c1d334d9aeb9c2ea1138ab75658bf98f7d1a6ac1"
      } ],
      "status": "active",
      "medicationCodeableConcept": {
        "coding": [ {
          "system": "http://snomed.info/sct",
          "code": "385432009",
          "display": "Not applicable (qualifier value)"
        } ],
        "text": "<Freitext>"
      },
      "subject": {
        "reference": "Patient/329772ee46b8fb52fbc8569d5c0d0636ec4a97f950a07b65dce87dfff260401e"
      },
      "effectiveDateTime": "2020-02-09T02:00:00+00:00"
    },
    "request": {
      "method": "POST",
      "url": "MedicationStatement",
      "ifNoneExist": "identifier=https://mein.krankenhaus.de/fhir/NamingSystem/medicationstatementId|b71870ae0c1ecfc809b058ed67602b71fc494b0cf349f04431eb6a923506b4ef"
    }
  }, {
    "fullUrl": "MedicationStatement/b92b8bd71679c5c3febdacd8b2cb8b9558f33619d555cacf63bada481ddc06aa",
    "resource": {
      "resourceType": "MedicationStatement",
      "meta": {
        "profile": [ "https://www.netzwerk-universitaetsmedizin.de/fhir/StructureDefinition/pharmacological-therapy" ]
      },
      "identifier": [ {
        "system": "https://mein.krankenhaus.de/fhir/NamingSystem/medicationstatementId",
        "value": "b9c069a7c1f411f78bfb96f6da68c5960aed98bdda9ce2d6eedc2a6dbc42f700"
      } ],
      "status": "stopped",
      "medicationCodeableConcept": {
        "coding": [ {
          "system": "http://snomed.info/sct",
          "code": "41549009"
        } ],
        "text": "ACE inhibitors"
      },
      "subject": {
        "reference": "Patient/329772ee46b8fb52fbc8569d5c0d0636ec4a97f950a07b65dce87dfff260401e"
      },
      "effectiveDateTime": "2020-02-09T02:00:00+00:00"
    },
    "request": {
      "method": "POST",
      "url": "MedicationStatement",
      "ifNoneExist": "identifier=https://mein.krankenhaus.de/fhir/NamingSystem/medicationstatementId|b92b8bd71679c5c3febdacd8b2cb8b9558f33619d555cacf63bada481ddc06aa"
    }
  }, {
    "fullUrl": "MedicationStatement/6a413787dc8e9ddce7ac74675b92e004102655cd7cbf2c6eb5d36df97fbee3fd",
    "resource": {
      "resourceType": "MedicationStatement",
      "meta": {
        "profile": [ "https://www.netzwerk-universitaetsmedizin.de/fhir/StructureDefinition/pharmacological-therapy" ]
      },
      "identifier": [ {
        "system": "https://mein.krankenhaus.de/fhir/NamingSystem/medicationstatementId",
        "value": "344eddf6d3290b5478f73a174bea67bb11018021d2839bea6dd2dcd9ec9d976c"
      } ],
      "status": "not-taken",
      "medicationCodeableConcept": {
        "coding": [ {
          "system": "http://snomed.info/sct",
          "code": "333710000"
        } ],
        "text": "immunoglobulins"
      },
      "subject": {
        "reference": "Patient/329772ee46b8fb52fbc8569d5c0d0636ec4a97f950a07b65dce87dfff260401e"
      },
      "effectiveDateTime": "2020-02-09T02:00:00+00:00"
    },
    "request": {
      "method": "POST",
      "url": "MedicationStatement",
      "ifNoneExist": "identifier=https://mein.krankenhaus.de/fhir/NamingSystem/medicationstatementId|6a413787dc8e9ddce7ac74675b92e004102655cd7cbf2c6eb5d36df97fbee3fd"
    }
  }, {
    "fullUrl": "MedicationStatement/53afac80dbfc7c7dde7e7960c6de82b55fc5f7c051f567b252b74bf8c51ea6bf",
    "resource": {
      "resourceType": "MedicationStatement",
      "meta": {
        "profile": [ "https://www.netzwerk-universitaetsmedizin.de/fhir/StructureDefinition/pharmacological-therapy-anticoagulants" ]
      },
      "identifier": [ {
        "system": "https://mein.krankenhaus.de/fhir/NamingSystem/medicationstatementId",
        "value": "078e88f09d50f230337ef9f53f49967cf79a9528a4362782c99ec23fb16b9282"
      } ],
      "status": "unknown",
      "medicationCodeableConcept": {
        "coding": [ {
          "system": "http://snomed.info/sct",
          "code": "81839001"
        }, {
          "system": "http://fhir.de/CodeSystem/dimdi/atc",
          "code": "B01AB01"
        }, {
          "system": "http://fhir.de/CodeSystem/dimdi/atc",
          "code": "B01AB51"
        } ]
      },
      "subject": {
        "reference": "Patient/329772ee46b8fb52fbc8569d5c0d0636ec4a97f950a07b65dce87dfff260401e"
      },
      "effectiveDateTime": "2020-02-09T02:00:00+00:00",
      "reasonCode": [ {
        "coding": [ {
          "system": "http://snomed.info/sct",
          "code": "373808002",
          "display": "Curative - procedure intent (qualifier value)"
        } ]
      } ]
    },
    "request": {
      "method": "POST",
      "url": "MedicationStatement",
      "ifNoneExist": "identifier=https://mein.krankenhaus.de/fhir/NamingSystem/medicationstatementId|53afac80dbfc7c7dde7e7960c6de82b55fc5f7c051f567b252b74bf8c51ea6bf"
    }
  }, {
    "fullUrl": "MedicationStatement/922717b60c5d5c071a22b550d46250449414bebbeff03a9af5177e46de925465",
    "resource": {
      "resourceType": "MedicationStatement",
      "meta": {
        "profile": [ "https://www.netzwerk-universitaetsmedizin.de/fhir/StructureDefinition/pharmacological-therapy-anticoagulants" ]
      },
      "identifier": [ {
        "system": "https://mein.krankenhaus.de/fhir/NamingSystem/medicationstatementId",
        "value": "f29d434e85a5d224f32d3fcb71f9604535355ad9631b4d91b1635a82d483c939"
      } ],
      "status": "not-taken",
      "medicationCodeableConcept": {
        "coding": [ {
          "system": "http://snomed.info/sct",
          "code": "81839001"
        }, {
          "system": "http://fhir.de/CodeSystem/dimdi/atc",
          "code": "B01AB08"
        }, {
          "system": "http://fhir.de/CodeSystem/dimdi/atc",
          "code": "B01AB13"
        }, {
          "system": "http://fhir.de/CodeSystem/dimdi/atc",
          "code": "B01AB04"
        }, {
          "system": "http://fhir.de/CodeSystem/dimdi/atc",
          "code": "B01AB05"
        }, {
          "system": "http://fhir.de/CodeSystem/dimdi/atc",
          "code": "B01AB06"
        }, {
          "system": "http://fhir.de/CodeSystem/dimdi/atc",
          "code": "B01AB10"
        }, {
          "system": "http://fhir.de/CodeSystem/dimdi/atc",
          "code": "B01AB12"
        }, {
          "system": "http://fhir.de/CodeSystem/dimdi/atc",
          "code": "B01AB63"
        }, {
          "system": "http://fhir.de/CodeSystem/dimdi/atc",
          "code": "B01AB07"
        }, {
          "system": "http://fhir.de/CodeSystem/dimdi/atc",
          "code": "B01AB11"
        } ]
      },
      "subject": {
        "reference": "Patient/329772ee46b8fb52fbc8569d5c0d0636ec4a97f950a07b65dce87dfff260401e"
      },
      "effectiveDateTime": "2020-02-09T02:00:00+00:00",
      "reasonCode": [ {
        "coding": [ {
          "system": "http://snomed.info/sct",
          "code": "373808002",
          "display": "Curative - procedure intent (qualifier value)"
        } ]
      } ]
    },
    "request": {
      "method": "POST",
      "url": "MedicationStatement",
      "ifNoneExist": "identifier=https://mein.krankenhaus.de/fhir/NamingSystem/medicationstatementId|922717b60c5d5c071a22b550d46250449414bebbeff03a9af5177e46de925465"
    }
  }, {
    "fullUrl": "MedicationStatement/da343c39328c863e73f4a08429050cd291899be3ac905bd111680a1f68ea76d0",
    "resource": {
      "resourceType": "MedicationStatement",
      "meta": {
        "profile": [ "https://www.netzwerk-universitaetsmedizin.de/fhir/StructureDefinition/pharmacological-therapy-anticoagulants" ]
      },
      "identifier": [ {
        "system": "https://mein.krankenhaus.de/fhir/NamingSystem/medicationstatementId",
        "value": "cbe6a0135fe445066ee897092e5eebb3f5122bb774c3304d5acdd256f05152c2"
      } ],
      "status": "active",
      "medicationCodeableConcept": {
        "coding": [ {
          "system": "http://snomed.info/sct",
          "code": "81839001"
        }, {
          "system": "http://fhir.de/CodeSystem/dimdi/atc",
          "code": "B01AE03"
        } ]
      },
      "subject": {
        "reference": "Patient/329772ee46b8fb52fbc8569d5c0d0636ec4a97f950a07b65dce87dfff260401e"
      },
      "effectiveDateTime": "2020-02-09T02:00:00+00:00",
      "reasonCode": [ {
        "coding": [ {
          "system": "http://snomed.info/sct",
          "code": "373808002",
          "display": "Curative - procedure intent (qualifier value)"
        } ]
      } ]
    },
    "request": {
      "method": "POST",
      "url": "MedicationStatement",
      "ifNoneExist": "identifier=https://mein.krankenhaus.de/fhir/NamingSystem/medicationstatementId|da343c39328c863e73f4a08429050cd291899be3ac905bd111680a1f68ea76d0"
    }
  }, {
    "fullUrl": "MedicationStatement/ebac3f2c922e9d0958aab9cdaf232b3a829abea8a53b339dc9bae53cd1bd0b0c",
    "resource": {
      "resourceType": "MedicationStatement",
      "meta": {
        "profile": [ "https://www.netzwerk-universitaetsmedizin.de/fhir/StructureDefinition/pharmacological-therapy-anticoagulants" ]
      },
      "identifier": [ {
        "system": "https://mein.krankenhaus.de/fhir/NamingSystem/medicationstatementId",
        "value": "d5102e603642ff4b4903dab86fd79b272790cd06195d9dcb1e5b14b690c27338"
      } ],
      "status": "not-taken",
      "medicationCodeableConcept": {
        "coding": [ {
          "system": "http://snomed.info/sct",
          "code": "81839001"
        }, {
          "system": "http://fhir.de/CodeSystem/dimdi/atc",
          "code": "B01AC"
        } ]
      },
      "subject": {
        "reference": "Patient/329772ee46b8fb52fbc8569d5c0d0636ec4a97f950a07b65dce87dfff260401e"
      },
      "effectiveDateTime": "2020-02-09T02:00:00+00:00",
      "reasonCode": [ {
        "coding": [ {
          "system": "http://snomed.info/sct",
          "code": "373808002",
          "display": "Curative - procedure intent (qualifier value)"
        } ]
      } ]
    },
    "request": {
      "method": "POST",
      "url": "MedicationStatement",
      "ifNoneExist": "identifier=https://mein.krankenhaus.de/fhir/NamingSystem/medicationstatementId|ebac3f2c922e9d0958aab9cdaf232b3a829abea8a53b339dc9bae53cd1bd0b0c"
    }
  }, {
    "fullUrl": "MedicationStatement/29ff6315983d8ed260c5a862337033d72ddb310894577b87971e0d82da984dea",
    "resource": {
      "resourceType": "MedicationStatement",
      "meta": {
        "profile": [ "https://www.netzwerk-universitaetsmedizin.de/fhir/StructureDefinition/pharmacological-therapy-anticoagulants" ]
      },
      "identifier": [ {
        "system": "https://mein.krankenhaus.de/fhir/NamingSystem/medicationstatementId",
        "value": "02a56074044ffcf86653c4e49f6dfd9146a9e0c86887ed95a1b1e2e1f7284baf"
      } ],
      "status": "active",
      "medicationCodeableConcept": {
        "coding": [ {
          "system": "http://snomed.info/sct",
          "code": "81839001"
        }, {
          "system": "http://fhir.de/CodeSystem/dimdi/atc",
          "code": "B01AB09"
        } ]
      },
      "subject": {
        "reference": "Patient/329772ee46b8fb52fbc8569d5c0d0636ec4a97f950a07b65dce87dfff260401e"
      },
      "effectiveDateTime": "2020-02-09T02:00:00+00:00",
      "reasonCode": [ {
        "coding": [ {
          "system": "http://snomed.info/sct",
          "code": "373808002",
          "display": "Curative - procedure intent (qualifier value)"
        } ]
      } ]
    },
    "request": {
      "method": "POST",
      "url": "MedicationStatement",
      "ifNoneExist": "identifier=https://mein.krankenhaus.de/fhir/NamingSystem/medicationstatementId|29ff6315983d8ed260c5a862337033d72ddb310894577b87971e0d82da984dea"
    }
  }, {
    "fullUrl": "MedicationStatement/be0f07c8630bc60f7983ec682a44928b3ff5445db30f2a65e68e20f69ddef41c",
    "resource": {
      "resourceType": "MedicationStatement",
      "meta": {
        "profile": [ "https://www.netzwerk-universitaetsmedizin.de/fhir/StructureDefinition/pharmacological-therapy-anticoagulants" ]
      },
      "identifier": [ {
        "system": "https://mein.krankenhaus.de/fhir/NamingSystem/medicationstatementId",
        "value": "ffda66c017ed86a08a9d34f896a60c974d9605351040dcf4884f2c9b5b4b0086"
      } ],
      "status": "not-taken",
      "medicationCodeableConcept": {
        "coding": [ {
          "system": "http://snomed.info/sct",
          "code": "81839001"
        }, {
          "system": "http://fhir.de/CodeSystem/dimdi/atc",
          "code": "B01AA04"
        } ]
      },
      "subject": {
        "reference": "Patient/329772ee46b8fb52fbc8569d5c0d0636ec4a97f950a07b65dce87dfff260401e"
      },
      "effectiveDateTime": "2020-02-09T02:00:00+00:00",
      "reasonCode": [ {
        "coding": [ {
          "system": "http://snomed.info/sct",
          "code": "373808002",
          "display": "Curative - procedure intent (qualifier value)"
        } ]
      } ]
    },
    "request": {
      "method": "POST",
      "url": "MedicationStatement",
      "ifNoneExist": "identifier=https://mein.krankenhaus.de/fhir/NamingSystem/medicationstatementId|be0f07c8630bc60f7983ec682a44928b3ff5445db30f2a65e68e20f69ddef41c"
    }
  }, {
    "fullUrl": "MedicationStatement/68c64c10c91881832c2cf38b3e9f17618d2ae3ad3af3c5fab5bf63bfdeef7d4e",
    "resource": {
      "resourceType": "MedicationStatement",
      "meta": {
        "profile": [ "https://www.netzwerk-universitaetsmedizin.de/fhir/StructureDefinition/pharmacological-therapy-anticoagulants" ]
      },
      "identifier": [ {
        "system": "https://mein.krankenhaus.de/fhir/NamingSystem/medicationstatementId",
        "value": "8e0e22da6b005524c9ffcd9168254d14f0640c5a54ed05c28882ba19e5f7a5f2"
      } ],
      "status": "not-taken",
      "medicationCodeableConcept": {
        "coding": [ {
          "system": "http://snomed.info/sct",
          "code": "81839001"
        }, {
          "system": "http://fhir.de/CodeSystem/dimdi/atc",
          "code": "B01AE"
        }, {
          "system": "http://fhir.de/CodeSystem/dimdi/atc",
          "code": "B01AF"
        } ]
      },
      "subject": {
        "reference": "Patient/329772ee46b8fb52fbc8569d5c0d0636ec4a97f950a07b65dce87dfff260401e"
      },
      "effectiveDateTime": "2020-02-09T02:00:00+00:00",
      "reasonCode": [ {
        "coding": [ {
          "system": "http://snomed.info/sct",
          "code": "373808002",
          "display": "Curative - procedure intent (qualifier value)"
        } ]
      } ]
    },
    "request": {
      "method": "POST",
      "url": "MedicationStatement",
      "ifNoneExist": "identifier=https://mein.krankenhaus.de/fhir/NamingSystem/medicationstatementId|68c64c10c91881832c2cf38b3e9f17618d2ae3ad3af3c5fab5bf63bfdeef7d4e"
    }
  }, {
    "fullUrl": "MedicationStatement/b32f611e4908c9e58d899e87846701f88d5c4548342a410f1fe614ed0a24d890",
    "resource": {
      "resourceType": "MedicationStatement",
      "meta": {
        "profile": [ "https://www.netzwerk-universitaetsmedizin.de/fhir/StructureDefinition/pharmacological-therapy-anticoagulants" ]
      },
      "identifier": [ {
        "system": "https://mein.krankenhaus.de/fhir/NamingSystem/medicationstatementId",
        "value": "cc2152d7f9bfee5e04c014b7c55832c6834cc9584837992c813bb7f3dd9e8dc4"
      } ],
      "status": "active",
      "medicationCodeableConcept": {
        "coding": [ {
          "system": "http://snomed.info/sct",
          "code": "81839001"
        }, {
          "system": "http://snomed.info/sct",
          "code": "385432009",
          "display": "Not applicable (qualifier value)"
        } ]
      },
      "subject": {
        "reference": "Patient/329772ee46b8fb52fbc8569d5c0d0636ec4a97f950a07b65dce87dfff260401e"
      },
      "effectiveDateTime": "2020-02-09T02:00:00+00:00",
      "reasonCode": [ {
        "coding": [ {
          "system": "http://snomed.info/sct",
          "code": "373808002",
          "display": "Curative - procedure intent (qualifier value)"
        } ]
      } ]
    },
    "request": {
      "method": "POST",
      "url": "MedicationStatement",
      "ifNoneExist": "identifier=https://mein.krankenhaus.de/fhir/NamingSystem/medicationstatementId|b32f611e4908c9e58d899e87846701f88d5c4548342a410f1fe614ed0a24d890"
    }
  }, {
    "fullUrl": "Observation/b837527afc24c16030808334c2d4e94796f65ae644ef441b0b82a4d6cabc3923",
    "resource": {
      "resourceType": "Observation",
      "meta": {
        "profile": [ "https://www.netzwerk-universitaetsmedizin.de/fhir/StructureDefinition/carbon-dioxide-partial-pressure" ]
      },
      "identifier": [ {
        "type": {
          "coding": [ {
            "system": "http://terminology.hl7.org/CodeSystem/v2-0203",
            "code": "OBI",
            "display": "Observation Instance Identifier"
          } ]
        },
        "system": "https://mein.krankenhaus.de/fhir/NamingSystem/observationId",
        "value": "f1b4c69f8b64481c9a4fd37b9fd1d50d6d3c50925ab9425d51edb6911a43a48c",
        "assigner": {
          "reference": "Organization/3a4f3433bce81181bad2d8e0b8fafccf7dc800bc06f29be73dcb38b750a48f9a"
        }
      } ],
      "status": "final",
      "category": [ {
        "coding": [ {
          "system": "http://terminology.hl7.org/CodeSystem/observation-category",
          "code": "laboratory",
          "display": "Laboratory"
        }, {
          "system": "http://loinc.org",
          "code": "26436-6",
          "display": "Laboratory studies (set)"
        }, {
          "system": "http://loinc.org",
          "code": "18767-4",
          "display": "Blood gas studies (set)"
        } ]
      } ],
      "code": {
        "coding": [ {
          "system": "http://loinc.org",
          "code": "11557-6"
        } ],
        "text": "Carbon dioxide [Partial pressure] in blood"
      },
      "subject": {
        "reference": "Patient/329772ee46b8fb52fbc8569d5c0d0636ec4a97f950a07b65dce87dfff260401e"
      },
      "encounter": {
        "reference": "Encounter/012d5fc79be7afddb721915fcfd2cf3f312fb138a6ce7ec051c34ef595ed9eb8"
      },
      "effectiveDateTime": "2020-04-14T04:54:00+00:00",
      "valueQuantity": {
        "value": 106,
        "unit": "mmHg",
        "system": "http://unitsofmeasure.org",
        "code": "mm[Hg]"
      }
    },
    "request": {
      "method": "POST",
      "url": "Observation",
      "ifNoneExist": "identifier=https://mein.krankenhaus.de/fhir/NamingSystem/observationId|b837527afc24c16030808334c2d4e94796f65ae644ef441b0b82a4d6cabc3923"
    }
  }, {
    "fullUrl": "Observation/02418103f0f863a24c2d8f03fd06f5acad8a33a58804cb2021daf90767e8b269",
    "resource": {
      "resourceType": "Observation",
      "meta": {
        "profile": [ "https://www.netzwerk-universitaetsmedizin.de/fhir/StructureDefinition/oxygen-partial-pressure" ]
      },
      "identifier": [ {
        "type": {
          "coding": [ {
            "system": "http://terminology.hl7.org/CodeSystem/v2-0203",
            "code": "OBI",
            "display": "Observation Instance Identifier"
          } ]
        },
        "system": "https://mein.krankenhaus.de/fhir/NamingSystem/observationId",
        "value": "9ba185209e313d3aef676e817ddf43d497dc962ffdf9c878edc27422e49dcf0d",
        "assigner": {
          "reference": "Organization/3a4f3433bce81181bad2d8e0b8fafccf7dc800bc06f29be73dcb38b750a48f9a"
        }
      } ],
      "status": "final",
      "category": [ {
        "coding": [ {
          "system": "http://terminology.hl7.org/CodeSystem/observation-category",
          "code": "laboratory",
          "display": "Laboratory"
        }, {
          "system": "http://loinc.org",
          "code": "26436-6",
          "display": "Laboratory studies (set)"
        }, {
          "system": "http://loinc.org",
          "code": "18767-4",
          "display": "Blood gas studies (set)"
        } ]
      } ],
      "code": {
        "coding": [ {
          "system": "http://loinc.org",
          "code": "11557-8"
        } ],
        "text": "Oxygen [Partial pressure] in blood"
      },
      "subject": {
        "reference": "Patient/329772ee46b8fb52fbc8569d5c0d0636ec4a97f950a07b65dce87dfff260401e"
      },
      "encounter": {
        "reference": "Encounter/012d5fc79be7afddb721915fcfd2cf3f312fb138a6ce7ec051c34ef595ed9eb8"
      },
      "effectiveDateTime": "2020-04-14T04:54:00+00:00",
      "valueQuantity": {
        "value": 92,
        "unit": "mmHg",
        "system": "http://unitsofmeasure.org",
        "code": "mm[Hg]"
      }
    },
    "request": {
      "method": "POST",
      "url": "Observation",
      "ifNoneExist": "identifier=https://mein.krankenhaus.de/fhir/NamingSystem/observationId|02418103f0f863a24c2d8f03fd06f5acad8a33a58804cb2021daf90767e8b269"
    }
  }, {
    "fullUrl": "Observation/969a0ec418d256dc8aa943bb561b47b4aa3f698cb3deb6ba5015be94bfc998a6",
    "resource": {
      "resourceType": "Observation",
      "meta": {
        "profile": [ "https://www.netzwerk-universitaetsmedizin.de/fhir/StructureDefinition/inhaled-oxygen-concentration" ]
      },
      "identifier": [ {
        "type": {
          "coding": [ {
            "system": "http://terminology.hl7.org/CodeSystem/v2-0203",
            "code": "OBI",
            "display": "Observation Instance Identifier"
          } ]
        },
        "system": "https://mein.krankenhaus.de/fhir/NamingSystem/observationId",
        "value": "5dae8ca9307d928ea480cb59774237e3d3c5b74a069d316f34e38d075a7ea79f",
        "assigner": {
          "reference": "Organization/3a4f3433bce81181bad2d8e0b8fafccf7dc800bc06f29be73dcb38b750a48f9a"
        }
      } ],
      "status": "final",
      "category": [ {
        "coding": [ {
          "system": "http://terminology.hl7.org/CodeSystem/observation-category",
          "code": "laboratory",
          "display": "Laboratory"
        }, {
          "system": "http://loinc.org",
          "code": "26436-6",
          "display": "Laboratory studies (set)"
        }, {
          "system": "http://loinc.org",
          "code": "18767-4",
          "display": "Blood gas studies (set)"
        } ]
      } ],
      "code": {
        "coding": [ {
          "system": "http://loinc.org",
          "code": "3150-0"
        }, {
          "system": "http://snomed.info/sct",
          "code": "250774007"
        } ],
        "text": "Oxygen [Partial pressure] in blood"
      },
      "subject": {
        "reference": "Patient/329772ee46b8fb52fbc8569d5c0d0636ec4a97f950a07b65dce87dfff260401e"
      },
      "encounter": {
        "reference": "Encounter/012d5fc79be7afddb721915fcfd2cf3f312fb138a6ce7ec051c34ef595ed9eb8"
      },
      "effectiveDateTime": "2020-04-14T04:54:00+00:00",
      "valueQuantity": {
        "value": 17.79312514518745,
        "unit": "%",
        "system": "http://unitsofmeasure.org",
        "code": "%"
      }
    },
    "request": {
      "method": "POST",
      "url": "Observation",
      "ifNoneExist": "identifier=https://mein.krankenhaus.de/fhir/NamingSystem/observationId|969a0ec418d256dc8aa943bb561b47b4aa3f698cb3deb6ba5015be94bfc998a6"
    }
  }, {
    "fullUrl": "Observation/a2b399d853461ddd5c176439f37f8b39730b32a2a6f6b7ce7056a650d5740941",
    "resource": {
      "resourceType": "Observation",
      "meta": {
        "profile": [ "https://www.netzwerk-universitaetsmedizin.de/fhir/StructureDefinition/pH" ]
      },
      "identifier": [ {
        "type": {
          "coding": [ {
            "system": "http://terminology.hl7.org/CodeSystem/v2-0203",
            "code": "OBI",
            "display": "Observation Instance Identifier"
          } ]
        },
        "system": "https://mein.krankenhaus.de/fhir/NamingSystem/observationId",
        "value": "ddecca196a4156254a4397a359d4321a022ee33499fde2e78dd029e943bb7e5b",
        "assigner": {
          "reference": "Organization/3a4f3433bce81181bad2d8e0b8fafccf7dc800bc06f29be73dcb38b750a48f9a"
        }
      } ],
      "status": "final",
      "category": [ {
        "coding": [ {
          "system": "http://terminology.hl7.org/CodeSystem/observation-category",
          "code": "laboratory",
          "display": "Laboratory"
        }, {
          "system": "http://loinc.org",
          "code": "26436-6",
          "display": "Laboratory studies (set)"
        }, {
          "system": "http://loinc.org",
          "code": "18767-4",
          "display": "Blood gas studies (set)"
        } ]
      } ],
      "code": {
        "coding": [ {
          "system": "http://loinc.org",
          "code": "11558-4"
        } ],
        "text": "pH of Blood"
      },
      "subject": {
        "reference": "Patient/329772ee46b8fb52fbc8569d5c0d0636ec4a97f950a07b65dce87dfff260401e"
      },
      "encounter": {
        "reference": "Encounter/012d5fc79be7afddb721915fcfd2cf3f312fb138a6ce7ec051c34ef595ed9eb8"
      },
      "effectiveDateTime": "2020-04-14T04:54:00+00:00",
      "valueQuantity": {
        "value": 8.383734870822456,
        "unit": "pH",
        "system": "http://unitsofmeasure.org",
        "code": "[pH]"
      }
    },
    "request": {
      "method": "POST",
      "url": "Observation",
      "ifNoneExist": "identifier=https://mein.krankenhaus.de/fhir/NamingSystem/observationId|a2b399d853461ddd5c176439f37f8b39730b32a2a6f6b7ce7056a650d5740941"
    }
  }, {
    "fullUrl": "Observation/35d8325f93ca8e81b6f6a93032f2d505ee454ac8943bec45f6ae6b3c4610221a",
    "resource": {
      "resourceType": "Observation",
      "meta": {
        "profile": [ "https://www.netzwerk-universitaetsmedizin.de/fhir/StructureDefinition/sofa-score" ]
      },
      "identifier": [ {
        "type": {
          "coding": [ {
            "system": "http://terminology.hl7.org/CodeSystem/v2-0203",
            "code": "OBI",
            "display": "Observation Instance Identifier"
          } ]
        },
        "system": "https://mein.krankenhaus.de/fhir/NamingSystem/observationId",
        "value": "61b60796a445ad716f92df2aa8040862ac35e706c2d4e4d4b0b2a846074ffe85",
        "assigner": {
          "reference": "Organization/3a4f3433bce81181bad2d8e0b8fafccf7dc800bc06f29be73dcb38b750a48f9a"
        }
      } ],
      "status": "final",
      "category": [ {
        "coding": [ {
          "system": "http://terminology.hl7.org/CodeSystem/observation-category",
          "code": "survey",
          "display": "Survey"
        } ]
      } ],
      "code": {
        "coding": [ {
          "system": "https://www.netzwerk-universitaetsmedizin.de/fhir/CodeSystem/ecrf-parameter-codes",
          "code": "06",
          "display": "SOFA-Score"
        } ],
        "text": "Sepsis-related organ failure assessment score"
      },
      "subject": {
        "reference": "Patient/329772ee46b8fb52fbc8569d5c0d0636ec4a97f950a07b65dce87dfff260401e"
      },
      "encounter": {
        "reference": "Encounter/012d5fc79be7afddb721915fcfd2cf3f312fb138a6ce7ec051c34ef595ed9eb8"
      },
      "effectiveDateTime": "2020-04-14T04:54:00+00:00",
      "valueInteger": 21,
      "component": [ {
        "code": {
          "coding": [ {
            "system": "https://www.netzwerk-universitaetsmedizin.de/fhir/CodeSystem/sofa-score",
            "code": "resp",
            "display": "Respiratory system"
          } ],
          "text": "SOFA Respiratory system scoring category"
        },
        "valueCodeableConcept": {
          "coding": [ {
            "system": "https://www.netzwerk-universitaetsmedizin.de/fhir/CodeSystem/sofa-score",
            "code": "resp2",
            "display": "Respiratory system SOFA score 2"
          } ],
          "text": "PaO2/FiO2 [mmHg (kPa)] < 300 (40)"
        }
      }, {
        "code": {
          "coding": [ {
            "system": "https://www.netzwerk-universitaetsmedizin.de/fhir/CodeSystem/sofa-score",
            "code": "ns",
            "display": "Nervous system"
          } ],
          "text": "SOFA Nervous system scoring category"
        },
        "valueCodeableConcept": {
          "coding": [ {
            "system": "https://www.netzwerk-universitaetsmedizin.de/fhir/CodeSystem/sofa-score",
            "code": "ns4",
            "display": "Nervous system SOFA score 4"
          } ],
          "text": "Glasgow Coma Scale (GCS) < 6"
        }
      }, {
        "code": {
          "coding": [ {
            "system": "https://www.netzwerk-universitaetsmedizin.de/fhir/CodeSystem/sofa-score",
            "code": "kid",
            "display": "Kidneys"
          } ],
          "text": "SOFA Kidneys scoring category"
        },
        "valueCodeableConcept": {
          "coding": [ {
            "system": "https://www.netzwerk-universitaetsmedizin.de/fhir/CodeSystem/sofa-score",
            "code": "kid4",
            "display": "Kidneys SOFA score 4"
          } ],
          "text": "Creatinine (mg/dl) [umol/L] (or urine output) > 5.0 [> 440] (or < 200 ml/d)"
        }
      }, {
        "code": {
          "coding": [ {
            "system": "https://www.netzwerk-universitaetsmedizin.de/fhir/CodeSystem/sofa-score",
            "code": "cvs",
            "display": "Cardiovascular system"
          } ],
          "text": "SOFA Cardiovascular system scoring category"
        },
        "valueCodeableConcept": {
          "coding": [ {
            "system": "https://www.netzwerk-universitaetsmedizin.de/fhir/CodeSystem/sofa-score",
            "code": "cvs3",
            "display": "Cardiovascular system SOFA score 3"
          } ],
          "text": "Administration of dopamine > 5 ug/kg/min OR epinephrine  0.1 ug/kg/min OR norepinephrine  0.1 ug/kg/min"
        }
      }, {
        "code": {
          "coding": [ {
            "system": "https://www.netzwerk-universitaetsmedizin.de/fhir/CodeSystem/sofa-score",
            "code": "liv",
            "display": "Liver"
          } ],
          "text": "SOFA Liver scoring category"
        },
        "valueCodeableConcept": {
          "coding": [ {
            "system": "https://www.netzwerk-universitaetsmedizin.de/fhir/CodeSystem/sofa-score",
            "code": "liv4",
            "display": "Liver SOFA score 4"
          } ],
          "text": "Bilirubin (mg/dl) [umol/L] > 12.0 [> 204]"
        }
      }, {
        "code": {
          "coding": [ {
            "system": "https://www.netzwerk-universitaetsmedizin.de/fhir/CodeSystem/sofa-score",
            "code": "coa",
            "display": "Coagulation"
          } ],
          "text": "SOFA Coagulation scoring category"
        },
        "valueCodeableConcept": {
          "coding": [ {
            "system": "https://www.netzwerk-universitaetsmedizin.de/fhir/CodeSystem/sofa-score",
            "code": "coa4",
            "display": "Coagulation SOFA score 4"
          } ],
          "text": "Platelets10^3/ul < 20"
        }
      } ]
    },
    "request": {
      "method": "POST",
      "url": "Observation",
      "ifNoneExist": "identifier=https://mein.krankenhaus.de/fhir/NamingSystem/observationId|35d8325f93ca8e81b6f6a93032f2d505ee454ac8943bec45f6ae6b3c4610221a"
    }
  }, {
    "fullUrl": "Observation/ccbb464d4fa2b880a1b59517741140e42bfc3df16667b04992a959f50ed8f30e",
    "resource": {
      "resourceType": "Observation",
      "meta": {
        "profile": [ "https://www.netzwerk-universitaetsmedizin.de/fhir/StructureDefinition/respiratory-rate" ]
      },
      "identifier": [ {
        "type": {
          "coding": [ {
            "system": "http://terminology.hl7.org/CodeSystem/v2-0203",
            "code": "OBI",
            "display": "Observation Instance Identifier"
          } ]
        },
        "system": "https://mein.krankenhaus.de/fhir/NamingSystem/observationId",
        "value": "1649871b6ccc3d596b4a054b47ad18a92358f81a2cf0a27ba150783cf646dd07",
        "assigner": {
          "reference": "Organization/3a4f3433bce81181bad2d8e0b8fafccf7dc800bc06f29be73dcb38b750a48f9a"
        }
      } ],
      "status": "final",
      "category": [ {
        "coding": [ {
          "system": "http://terminology.hl7.org/CodeSystem/observation-category",
          "code": "vital-signs",
          "display": "Vital Signs"
        } ]
      } ],
      "code": {
        "coding": [ {
          "system": "http://loinc.org",
          "code": "9279-1"
        }, {
          "system": "http://snomed.info/sct",
          "code": "86290005"
        } ],
        "text": "Respiratory rate"
      },
      "subject": {
        "reference": "Patient/329772ee46b8fb52fbc8569d5c0d0636ec4a97f950a07b65dce87dfff260401e"
      },
      "encounter": {
        "reference": "Encounter/012d5fc79be7afddb721915fcfd2cf3f312fb138a6ce7ec051c34ef595ed9eb8"
      },
      "effectiveDateTime": "2020-04-14T04:54:00+00:00",
      "valueQuantity": {
        "value": 73,
        "unit": "per minute",
        "system": "http://unitsofmeasure.org",
        "code": "/min"
      }
    },
    "request": {
      "method": "POST",
      "url": "Observation",
      "ifNoneExist": "identifier=https://mein.krankenhaus.de/fhir/NamingSystem/observationId|ccbb464d4fa2b880a1b59517741140e42bfc3df16667b04992a959f50ed8f30e"
    }
  }, {
    "fullUrl": "Observation/f9273ed6434ac533f02e20d70ddb13f08dcaffd82b280311b3cad0446b41e989",
    "resource": {
      "resourceType": "Observation",
      "meta": {
        "profile": [ "https://www.netzwerk-universitaetsmedizin.de/fhir/StructureDefinition/blood-pressure" ]
      },
      "identifier": [ {
        "type": {
          "coding": [ {
            "system": "http://terminology.hl7.org/CodeSystem/v2-0203",
            "code": "OBI",
            "display": "Observation Instance Identifier"
          } ]
        },
        "system": "https://mein.krankenhaus.de/fhir/NamingSystem/observationId",
        "value": "03640d3e6f2cc2b476597d49b0d1d9a6197630c1fbebb4ee6a5670aa8f35b15c",
        "assigner": {
          "reference": "Organization/3a4f3433bce81181bad2d8e0b8fafccf7dc800bc06f29be73dcb38b750a48f9a"
        }
      } ],
      "status": "final",
      "category": [ {
        "coding": [ {
          "system": "http://terminology.hl7.org/CodeSystem/observation-category",
          "code": "vital-signs",
          "display": "Vital Signs"
        } ]
      } ],
      "code": {
        "coding": [ {
          "system": "http://loinc.org",
          "code": "85354-9",
          "display": "Blood pressure panel with all children optional"
        }, {
          "system": "http://snomed.info/sct",
          "code": "75367002",
          "display": "Blood pressure (observable entity)"
        } ],
        "text": "Blood pressure"
      },
      "subject": {
        "reference": "Patient/329772ee46b8fb52fbc8569d5c0d0636ec4a97f950a07b65dce87dfff260401e"
      },
      "encounter": {
        "reference": "Encounter/012d5fc79be7afddb721915fcfd2cf3f312fb138a6ce7ec051c34ef595ed9eb8"
      },
      "effectiveDateTime": "2020-04-14T04:54:00+00:00",
      "component": [ {
        "code": {
          "coding": [ {
            "system": "http://loinc.org",
            "code": "8480-6"
          }, {
            "system": "http://snomed.info/sct",
            "code": "271649006"
          } ],
          "text": "Systolic blood pressure"
        },
        "valueQuantity": {
          "value": 117,
          "unit": "mmHg",
          "system": "http://unitsofmeasure.org",
          "code": "mm[Hg]"
        }
      }, {
        "code": {
          "coding": [ {
            "system": "http://loinc.org",
            "code": "8462-4"
          }, {
            "system": "http://snomed.info/sct",
            "code": "271650006"
          } ],
          "text": "Diastolic blood pressure"
        }
      } ]
    },
    "request": {
      "method": "POST",
      "url": "Observation",
      "ifNoneExist": "identifier=https://mein.krankenhaus.de/fhir/NamingSystem/observationId|f9273ed6434ac533f02e20d70ddb13f08dcaffd82b280311b3cad0446b41e989"
    }
  }, {
    "fullUrl": "Observation/f2c09e6840249d274fb95360aa8638f8f4ce1ff4203d5ff40b2a1f2e2cfef734",
    "resource": {
      "resourceType": "Observation",
      "meta": {
        "profile": [ "https://www.netzwerk-universitaetsmedizin.de/fhir/StructureDefinition/body-temperature" ]
      },
      "identifier": [ {
        "type": {
          "coding": [ {
            "system": "http://terminology.hl7.org/CodeSystem/v2-0203",
            "code": "OBI",
            "display": "Observation Instance Identifier"
          } ]
        },
        "system": "https://mein.krankenhaus.de/fhir/NamingSystem/observationId",
        "value": "1c511133f2d101da1480fe8c5ae6597e32d622a191821f7d9d28b98f6a7840c7",
        "assigner": {
          "reference": "Organization/3a4f3433bce81181bad2d8e0b8fafccf7dc800bc06f29be73dcb38b750a48f9a"
        }
      } ],
      "status": "final",
      "category": [ {
        "coding": [ {
          "system": "http://terminology.hl7.org/CodeSystem/observation-category",
          "code": "vital-signs",
          "display": "Vital Signs"
        } ]
      } ],
      "code": {
        "coding": [ {
          "system": "http://loinc.org",
          "code": "8310-5"
        }, {
          "system": "http://snomed.info/sct",
          "code": "386725007"
        } ],
        "text": "Body temperature"
      },
      "subject": {
        "reference": "Patient/329772ee46b8fb52fbc8569d5c0d0636ec4a97f950a07b65dce87dfff260401e"
      },
      "encounter": {
        "reference": "Encounter/012d5fc79be7afddb721915fcfd2cf3f312fb138a6ce7ec051c34ef595ed9eb8"
      },
      "effectiveDateTime": "2020-04-14T04:54:00+00:00",
      "valueQuantity": {
        "value": 43.19722963898452,
        "unit": "C",
        "system": "http://unitsofmeasure.org",
        "code": "Cel"
      }
    },
    "request": {
      "method": "POST",
      "url": "Observation",
      "ifNoneExist": "identifier=https://mein.krankenhaus.de/fhir/NamingSystem/observationId|f2c09e6840249d274fb95360aa8638f8f4ce1ff4203d5ff40b2a1f2e2cfef734"
    }
  }, {
    "fullUrl": "Observation/3b82b1a13218a685975ca27f9589f01fa10fefe49430b41ed592a5827009b32c",
    "resource": {
      "resourceType": "Observation",
      "meta": {
        "profile": [ "https://www.netzwerk-universitaetsmedizin.de/fhir/StructureDefinition/oxygen-saturation" ]
      },
      "identifier": [ {
        "type": {
          "coding": [ {
            "system": "http://terminology.hl7.org/CodeSystem/v2-0203",
            "code": "OBI",
            "display": "Observation Instance Identifier"
          } ]
        },
        "system": "https://mein.krankenhaus.de/fhir/NamingSystem/observationId",
        "value": "327e9601373d15c61b36f0d5117dc4aa05d3ed94ca130b0eb62aabfc47e81b4d",
        "assigner": {
          "reference": "Organization/3a4f3433bce81181bad2d8e0b8fafccf7dc800bc06f29be73dcb38b750a48f9a"
        }
      } ],
      "status": "final",
      "category": [ {
        "coding": [ {
          "system": "http://terminology.hl7.org/CodeSystem/observation-category",
          "code": "vital-signs",
          "display": "Vital Signs"
        } ]
      } ],
      "code": {
        "coding": [ {
          "system": "http://loinc.org",
          "code": "2708-6"
        }, {
          "system": "http://loinc.org",
          "code": "59408-5"
        }, {
          "system": "http://loinc.org",
          "code": "20564-1"
        }, {
          "system": "http://snomed.info/sct",
          "code": "431314004"
        } ],
        "text": "Oxygen saturation in Arterial blood"
      },
      "subject": {
        "reference": "Patient/329772ee46b8fb52fbc8569d5c0d0636ec4a97f950a07b65dce87dfff260401e"
      },
      "encounter": {
        "reference": "Encounter/012d5fc79be7afddb721915fcfd2cf3f312fb138a6ce7ec051c34ef595ed9eb8"
      },
      "effectiveDateTime": "2020-04-14T04:54:00+00:00",
      "valueQuantity": {
        "value": 76,
        "unit": "%",
        "system": "http://unitsofmeasure.org",
        "code": "%"
      }
    },
    "request": {
      "method": "POST",
      "url": "Observation",
      "ifNoneExist": "identifier=https://mein.krankenhaus.de/fhir/NamingSystem/observationId|3b82b1a13218a685975ca27f9589f01fa10fefe49430b41ed592a5827009b32c"
    }
  }, {
    "fullUrl": "Observation/d557ccd0cde3764127510bd64296d013ca2778f5858890e245980a0c09002ef8",
    "resource": {
      "resourceType": "Observation",
      "meta": {
        "profile": [ "https://www.netzwerk-universitaetsmedizin.de/fhir/StructureDefinition/study-inclusion-covid-19" ]
      },
      "identifier": [ {
        "type": {
          "coding": [ {
            "system": "http://terminology.hl7.org/CodeSystem/v2-0203",
            "code": "OBI",
            "display": "Observation Instance Identifier"
          } ]
        },
        "system": "https://mein.krankenhaus.de/fhir/NamingSystem/observationId",
        "value": "76e9548be8e7f5f4743941b8fc69ab97dbe361205c6b96db5c469b9d7fd596d8",
        "assigner": {
          "reference": "Organization/3a4f3433bce81181bad2d8e0b8fafccf7dc800bc06f29be73dcb38b750a48f9a"
        }
      } ],
      "status": "final",
      "category": [ {
        "coding": [ {
          "system": "http://terminology.hl7.org/CodeSystem/observation-category",
          "code": "survey",
          "display": "Survey"
        } ]
      } ],
      "code": {
        "coding": [ {
          "system": "https://www.netzwerk-universitaetsmedizin.de/fhir/CodeSystem/ecrf-parameter-codes",
          "code": "02",
          "display": "Study inclusion due to Covid-19"
        } ],
        "text": "Confirmed Covid-19 diagnosis as main reason for enrolment in the study"
      },
      "subject": {
        "reference": "Patient/329772ee46b8fb52fbc8569d5c0d0636ec4a97f950a07b65dce87dfff260401e"
      },
      "_effectiveDateTime": {
        "extension": [ {
          "url": "http://hl7.org/fhir/StructureDefinition/data-absent-reason",
          "valueCode": "unknown"
        } ]
      },
      "valueCodeableConcept": {
        "coding": [ {
          "system": "http://snomed.info/sct",
          "code": "373067005"
        } ]
      }
    },
    "request": {
      "method": "POST",
      "url": "Observation",
      "ifNoneExist": "identifier=https://mein.krankenhaus.de/fhir/NamingSystem/observationId|d557ccd0cde3764127510bd64296d013ca2778f5858890e245980a0c09002ef8"
    }
  }, {
    "fullUrl": "Observation/18aadee8f6290068a0435f56ad01c753299cf13588e0e2fab525608be105dbb0",
    "resource": {
      "resourceType": "Observation",
      "meta": {
        "profile": [ "https://www.netzwerk-universitaetsmedizin.de/fhir/StructureDefinition/interventional-clinical-trial-participation" ]
      },
      "identifier": [ {
        "type": {
          "coding": [ {
            "system": "http://terminology.hl7.org/CodeSystem/v2-0203",
            "code": "OBI",
            "display": "Observation Instance Identifier"
          } ]
        },
        "system": "https://mein.krankenhaus.de/fhir/NamingSystem/observationId",
        "value": "93f39fed5774a49c0d086bcff0eed1f39ecb8fcd2ff8755b59f948b7ab429f90",
        "assigner": {
          "reference": "Organization/3a4f3433bce81181bad2d8e0b8fafccf7dc800bc06f29be73dcb38b750a48f9a"
        }
      } ],
      "status": "final",
      "category": [ {
        "coding": [ {
          "system": "http://terminology.hl7.org/CodeSystem/observation-category",
          "code": "survey",
          "display": "Survey"
        } ]
      } ],
      "code": {
        "coding": [ {
          "system": "https://www.netzwerk-universitaetsmedizin.de/fhir/CodeSystem/ecrf-parameter-codes",
          "code": "03",
          "display": "Participation in interventional clinical trials"
        } ],
        "text": "Has the patient participated in one or more interventional clinical trials?"
      },
      "subject": {
        "reference": "Patient/329772ee46b8fb52fbc8569d5c0d0636ec4a97f950a07b65dce87dfff260401e"
      },
      "_effectiveDateTime": {
        "extension": [ {
          "url": "http://hl7.org/fhir/StructureDefinition/data-absent-reason",
          "valueCode": "unknown"
        } ]
      },
      "valueCodeableConcept": {
        "coding": [ {
          "system": "http://snomed.info/sct",
          "code": "373066001"
        } ]
      }
    },
    "request": {
      "method": "POST",
      "url": "Observation",
      "ifNoneExist": "identifier=https://mein.krankenhaus.de/fhir/NamingSystem/observationId|18aadee8f6290068a0435f56ad01c753299cf13588e0e2fab525608be105dbb0"
    }
  } ]
}