{
  "resourceType": "Bundle",
  "meta": {
    "profile": [ "https://www.netzwerk-universitaetsmedizin.de/fhir/StructureDefinition/gecco-bundle" ]
  },
  "type": "transaction",
  "entry": [ {
    "fullUrl": "Patient/ed453467c56af402bc7ca7b52779dffc1fcbf4564e9c2e0b31171f1f311de03e",
    "resource": {
      "resourceType": "Patient",
      "meta": {
        "profile": [ "https://www.netzwerk-universitaetsmedizin.de/fhir/StructureDefinition/Patient" ]
      },
      "extension": [ {
        "url": "https://www.netzwerk-universitaetsmedizin.de/fhir/StructureDefinition/age",
        "extension": [ {
          "url": "dateTimeOfDocumentation",
          "_valueDateTime": {
            "extension": [ {
              "url": "http://hl7.org/fhir/StructureDefinition/data-absent-reason",
              "valueCode": "unknown"
            } ]
          }
        }, {
          "url": "age",
          "valueAge": {
            "value": 85,
            "unit": "years",
            "system": "http://unitsofmeasure.org",
            "code": "a"
          }
        } ]
      }, {
        "url": "https://www.netzwerk-universitaetsmedizin.de/fhir/StructureDefinition/ethnic-group",
        "valueCoding": {
          "system": "http://snomed.info/sct",
          "code": "315280000"
        }
      } ],
      "identifier": [ {
        "type": {
          "coding": [ {
            "system": "http://terminology.hl7.org/CodeSystem/v2-0203",
            "code": "MR"
          } ]
        },
        "system": "https://mein.krankenhaus.de/fhir/NamingSystem/patientId",
        "value": "synthetic_patient_192332356",
        "assigner": {
          "reference": "Organization/3a4f3433bce81181bad2d8e0b8fafccf7dc800bc06f29be73dcb38b750a48f9a"
        }
      } ],
      "birthDate": "1935-03-26"
    },
    "request": {
      "method": "POST",
      "url": "Patient",
      "ifNoneExist": "identifier=https://mein.krankenhaus.de/fhir/NamingSystem/patientId|ed453467c56af402bc7ca7b52779dffc1fcbf4564e9c2e0b31171f1f311de03e"
    }
  }, {
    "fullUrl": "Organization/3a4f3433bce81181bad2d8e0b8fafccf7dc800bc06f29be73dcb38b750a48f9a",
    "resource": {
      "resourceType": "Organization",
      "name": "Mein Krankenhaus"
    },
    "request": {
      "method": "POST",
      "url": "Organization",
      "ifNoneExist": "identifier=null|3a4f3433bce81181bad2d8e0b8fafccf7dc800bc06f29be73dcb38b750a48f9a"
    }
  }, {
    "fullUrl": "Encounter/9bf08d2957667be3cdba164221abe51c063e661403a1802e45d3ec3dd03bdd00",
    "resource": {
      "resourceType": "Encounter",
      "identifier": [ {
        "system": "https://mein.krankenhaus.de/fhir/NamingSystem/encounterId",
        "value": "423e5dbd5153f24ecf7b0d0633f81b589211d5ac037022693c4621e39ea80d13",
        "assigner": {
          "reference": "Organization/3a4f3433bce81181bad2d8e0b8fafccf7dc800bc06f29be73dcb38b750a48f9a"
        }
      } ],
      "status": "unknown",
      "class": {
        "system": "http://terminology.hl7.org/CodeSystem/v3-ActCode",
        "code": "IMP",
        "display": "inpatient encounter"
      },
      "subject": {
        "reference": "Patient/ed453467c56af402bc7ca7b52779dffc1fcbf4564e9c2e0b31171f1f311de03e"
      }
    },
    "request": {
      "method": "POST",
      "url": "Encounter",
      "ifNoneExist": "identifier=https://mein.krankenhaus.de/fhir/NamingSystem/encounterId|9bf08d2957667be3cdba164221abe51c063e661403a1802e45d3ec3dd03bdd00"
    }
  }, {
    "fullUrl": "Condition/70a7d1d30b9f8b8bb8c55c1e13f9236e5b0c9a762861bc26b309c038433f33c2",
    "resource": {
      "resourceType": "Condition",
      "meta": {
        "profile": [ "https://www.netzwerk-universitaetsmedizin.de/fhir/StructureDefinition/diagnosis-covid-19" ]
      },
      "identifier": [ {
        "system": "https://mein.krankenhaus.de/fhir/NamingSystem/conditionId",
        "value": "60639f226d19a0ba4b7242edebb356a6e012215f7515b08d20d7aad4e822d3f5"
      } ],
      "clinicalStatus": {
        "coding": [ {
          "system": "http://terminology.hl7.org/CodeSystem/condition-clinical",
          "code": "active",
          "display": "Active"
        } ]
      },
      "verificationStatus": {
        "coding": [ {
          "system": "http://terminology.hl7.org/CodeSystem/condition-ver-status",
          "code": "confirmed",
          "display": "Confirmed"
        }, {
          "system": "http://snomed.info/sct",
          "code": "410605003",
          "display": "Confirmed present (qualifier value)"
        } ]
      },
      "category": [ {
        "coding": [ {
          "system": "http://snomed.info/sct",
          "code": "394807007",
          "display": "Infectious diseases (specialty) (qualifier value)"
        } ]
      } ],
      "code": {
        "coding": [ {
          "system": "http://snomed.info/sct",
          "code": "840539006",
          "display": "Disease caused by Severe acute respiratory syndrome coronavirus 2 (disorder)"
        } ]
      },
      "subject": {
        "reference": "Patient/ed453467c56af402bc7ca7b52779dffc1fcbf4564e9c2e0b31171f1f311de03e"
      },
      "encounter": {
        "reference": "Encounter/9bf08d2957667be3cdba164221abe51c063e661403a1802e45d3ec3dd03bdd00"
      },
      "_recordedDate": {
        "extension": [ {
          "url": "http://hl7.org/fhir/StructureDefinition/data-absent-reason",
          "valueCode": "unknown"
        } ]
      },
      "stage": [ {
        "summary": {
          "coding": [ {
            "system": "http://snomed.info/sct",
            "code": "24484000"
          } ]
        },
        "type": {
          "coding": [ {
            "system": "http://loinc.org",
            "code": "88859-4"
          } ]
        }
      } ]
    },
    "request": {
      "method": "POST",
      "url": "Condition",
      "ifNoneExist": "identifier=https://mein.krankenhaus.de/fhir/NamingSystem/conditionId|70a7d1d30b9f8b8bb8c55c1e13f9236e5b0c9a762861bc26b309c038433f33c2"
    }
  }, {
    "fullUrl": "Condition/b6cdb5fc3177dc79ca05ad0f67c191c7029f1ad4cf58bc003cb60dd6620eb055",
    "resource": {
      "resourceType": "Condition",
      "meta": {
        "profile": [ "https://www.netzwerk-universitaetsmedizin.de/fhir/StructureDefinition/chronic-lung-diseases" ]
      },
      "identifier": [ {
        "system": "https://mein.krankenhaus.de/fhir/NamingSystem/conditionId",
        "value": "238f60e24f1e6fa1fe6c61efa7407d02b6c5909649240ffdd5b7aeef8f555a91"
      } ],
      "verificationStatus": {
        "coding": [ {
          "system": "http://terminology.hl7.org/CodeSystem/condition-ver-status",
          "code": "refuted",
          "display": "Refuted"
        }, {
          "system": "http://snomed.info/sct",
          "code": "410594000",
          "display": "Definitely NOT present (qualifier value)"
        } ]
      },
      "category": [ {
        "coding": [ {
          "system": "http://snomed.info/sct",
          "code": "418112009",
          "display": "Pulmonary medicine (qualifier value)"
        } ]
      } ],
      "code": {
        "coding": [ {
          "system": "http://fhir.de/CodeSystem/dimdi/icd-10-gm",
          "version": "2021",
          "code": "J45.9"
        }, {
          "system": "http://snomed.info/sct",
          "code": "195967001"
        } ]
      },
      "subject": {
        "reference": "Patient/ed453467c56af402bc7ca7b52779dffc1fcbf4564e9c2e0b31171f1f311de03e"
      },
      "encounter": {
        "reference": "Encounter/9bf08d2957667be3cdba164221abe51c063e661403a1802e45d3ec3dd03bdd00"
      },
      "_recordedDate": {
        "extension": [ {
          "url": "http://hl7.org/fhir/StructureDefinition/data-absent-reason",
          "valueCode": "unknown"
        } ]
      }
    },
    "request": {
      "method": "POST",
      "url": "Condition",
      "ifNoneExist": "identifier=https://mein.krankenhaus.de/fhir/NamingSystem/conditionId|b6cdb5fc3177dc79ca05ad0f67c191c7029f1ad4cf58bc003cb60dd6620eb055"
    }
  }, {
    "fullUrl": "Condition/565452977bd774edbc28f4bfdac0059778e1be3b478494220597f08fa7d318ae",
    "resource": {
      "resourceType": "Condition",
      "meta": {
        "profile": [ "https://www.netzwerk-universitaetsmedizin.de/fhir/StructureDefinition/chronic-lung-diseases" ]
      },
      "identifier": [ {
        "system": "https://mein.krankenhaus.de/fhir/NamingSystem/conditionId",
        "value": "21e3f9ef34754b2c60d7fa3c80fe5de1bbbaba7e0f66fdc533d5249e93cd0356"
      } ],
      "clinicalStatus": {
        "coding": [ {
          "system": "http://terminology.hl7.org/CodeSystem/condition-clinical",
          "code": "active",
          "display": "Active"
        } ]
      },
      "verificationStatus": {
        "coding": [ {
          "system": "http://terminology.hl7.org/CodeSystem/condition-ver-status",
          "code": "confirmed",
          "display": "Confirmed"
        }, {
          "system": "http://snomed.info/sct",
          "code": "410605003",
          "display": "Confirmed present (qualifier value)"
        } ]
      },
      "category": [ {
        "coding": [ {
          "system": "http://snomed.info/sct",
          "code": "418112009",
          "display": "Pulmonary medicine (qualifier value)"
        } ]
      } ],
      "code": {
        "coding": [ {
          "system": "http://fhir.de/CodeSystem/dimdi/icd-10-gm",
          "version": "2021",
          "code": "J44.9"
        }, {
          "system": "http://snomed.info/sct",
          "code": "13645005"
        } ]
      },
      "subject": {
        "reference": "Patient/ed453467c56af402bc7ca7b52779dffc1fcbf4564e9c2e0b31171f1f311de03e"
      },
      "encounter": {
        "reference": "Encounter/9bf08d2957667be3cdba164221abe51c063e661403a1802e45d3ec3dd03bdd00"
      },
      "_recordedDate": {
        "extension": [ {
          "url": "http://hl7.org/fhir/StructureDefinition/data-absent-reason",
          "valueCode": "unknown"
        } ]
      }
    },
    "request": {
      "method": "POST",
      "url": "Condition",
      "ifNoneExist": "identifier=https://mein.krankenhaus.de/fhir/NamingSystem/conditionId|565452977bd774edbc28f4bfdac0059778e1be3b478494220597f08fa7d318ae"
    }
  }, {
    "fullUrl": "Condition/e9b117f90bfa4ab7dfc66b83f3ee945f79ee9334020e03c368af98d87dcc2a43",
    "resource": {
      "resourceType": "Condition",
      "meta": {
        "profile": [ "https://www.netzwerk-universitaetsmedizin.de/fhir/StructureDefinition/chronic-lung-diseases" ]
      },
      "identifier": [ {
        "system": "https://mein.krankenhaus.de/fhir/NamingSystem/conditionId",
        "value": "21b1a14a1055daa4f4928cbf5a61139bc9bdb89d34e024e753b5dcc80342284a"
      } ],
      "verificationStatus": {
        "coding": [ {
          "system": "http://terminology.hl7.org/CodeSystem/condition-ver-status",
          "code": "refuted",
          "display": "Refuted"
        }, {
          "system": "http://snomed.info/sct",
          "code": "410594000",
          "display": "Definitely NOT present (qualifier value)"
        } ]
      },
      "category": [ {
        "coding": [ {
          "system": "http://snomed.info/sct",
          "code": "418112009",
          "display": "Pulmonary medicine (qualifier value)"
        } ]
      } ],
      "code": {
        "coding": [ {
          "system": "http://fhir.de/CodeSystem/dimdi/icd-10-gm",
          "version": "2021",
          "code": "J84.1"
        }, {
          "system": "http://snomed.info/sct",
          "code": "51615001"
        } ]
      },
      "subject": {
        "reference": "Patient/ed453467c56af402bc7ca7b52779dffc1fcbf4564e9c2e0b31171f1f311de03e"
      },
      "encounter": {
        "reference": "Encounter/9bf08d2957667be3cdba164221abe51c063e661403a1802e45d3ec3dd03bdd00"
      },
      "_recordedDate": {
        "extension": [ {
          "url": "http://hl7.org/fhir/StructureDefinition/data-absent-reason",
          "valueCode": "unknown"
        } ]
      }
    },
    "request": {
      "method": "POST",
      "url": "Condition",
      "ifNoneExist": "identifier=https://mein.krankenhaus.de/fhir/NamingSystem/conditionId|e9b117f90bfa4ab7dfc66b83f3ee945f79ee9334020e03c368af98d87dcc2a43"
    }
  }, {
    "fullUrl": "Condition/940fb74e9690bc5879e61b6422452fff13a6d11f0f7db636a6ec1b5066817ffc",
    "resource": {
      "resourceType": "Condition",
      "meta": {
        "profile": [ "https://www.netzwerk-universitaetsmedizin.de/fhir/StructureDefinition/chronic-lung-diseases" ]
      },
      "identifier": [ {
        "system": "https://mein.krankenhaus.de/fhir/NamingSystem/conditionId",
        "value": "f1da02dbbef40aa5bd176163a0706f81f7ea1f51ca84fb408ffbfbe854502554"
      } ],
      "clinicalStatus": {
        "coding": [ {
          "system": "http://terminology.hl7.org/CodeSystem/condition-clinical",
          "code": "active",
          "display": "Active"
        } ]
      },
      "verificationStatus": {
        "coding": [ {
          "system": "http://terminology.hl7.org/CodeSystem/condition-ver-status",
          "code": "confirmed",
          "display": "Confirmed"
        }, {
          "system": "http://snomed.info/sct",
          "code": "410605003",
          "display": "Confirmed present (qualifier value)"
        } ]
      },
      "category": [ {
        "coding": [ {
          "system": "http://snomed.info/sct",
          "code": "418112009",
          "display": "Pulmonary medicine (qualifier value)"
        } ]
      } ],
      "code": {
        "coding": [ {
          "system": "http://fhir.de/CodeSystem/dimdi/icd-10-gm",
          "version": "2021",
          "code": "I27.0"
        }, {
          "system": "http://snomed.info/sct",
          "code": "70995007"
        } ]
      },
      "subject": {
        "reference": "Patient/ed453467c56af402bc7ca7b52779dffc1fcbf4564e9c2e0b31171f1f311de03e"
      },
      "encounter": {
        "reference": "Encounter/9bf08d2957667be3cdba164221abe51c063e661403a1802e45d3ec3dd03bdd00"
      },
      "_recordedDate": {
        "extension": [ {
          "url": "http://hl7.org/fhir/StructureDefinition/data-absent-reason",
          "valueCode": "unknown"
        } ]
      }
    },
    "request": {
      "method": "POST",
      "url": "Condition",
      "ifNoneExist": "identifier=https://mein.krankenhaus.de/fhir/NamingSystem/conditionId|940fb74e9690bc5879e61b6422452fff13a6d11f0f7db636a6ec1b5066817ffc"
    }
  }, {
    "fullUrl": "Condition/a963b80987dec682a2c62705b4a46dca45ec3ba3d8205dba4578a72d06c2e004",
    "resource": {
      "resourceType": "Condition",
      "meta": {
        "profile": [ "https://www.netzwerk-universitaetsmedizin.de/fhir/StructureDefinition/chronic-lung-diseases" ]
      },
      "modifierExtension": [ {
        "url": "https://www.netzwerk-universitaetsmedizin.de/fhir/StructureDefinition/uncertainty-of-presence",
        "valueCodeableConcept": {
          "coding": [ {
            "system": "http://snomed.info/sct",
            "code": "261665006",
            "display": "Unknown (qualifier value)"
          } ],
          "text": "Presence unknown."
        }
      } ],
      "identifier": [ {
        "system": "https://mein.krankenhaus.de/fhir/NamingSystem/conditionId",
        "value": "24dd2c0f31874e12a9ce636409ef64b18de37e3ba2475be93c6b93169307e15a"
      } ],
      "category": [ {
        "coding": [ {
          "system": "http://snomed.info/sct",
          "code": "418112009",
          "display": "Pulmonary medicine (qualifier value)"
        } ]
      } ],
      "code": {
        "coding": [ {
          "system": "http://fhir.de/CodeSystem/dimdi/icd-10-gm",
          "version": "2021",
          "code": "E66.29"
        }, {
          "system": "http://snomed.info/sct",
          "code": "190966007"
        } ]
      },
      "subject": {
        "reference": "Patient/ed453467c56af402bc7ca7b52779dffc1fcbf4564e9c2e0b31171f1f311de03e"
      },
      "encounter": {
        "reference": "Encounter/9bf08d2957667be3cdba164221abe51c063e661403a1802e45d3ec3dd03bdd00"
      },
      "_recordedDate": {
        "extension": [ {
          "url": "http://hl7.org/fhir/StructureDefinition/data-absent-reason",
          "valueCode": "unknown"
        } ]
      }
    },
    "request": {
      "method": "POST",
      "url": "Condition",
      "ifNoneExist": "identifier=https://mein.krankenhaus.de/fhir/NamingSystem/conditionId|a963b80987dec682a2c62705b4a46dca45ec3ba3d8205dba4578a72d06c2e004"
    }
  }, {
    "fullUrl": "Condition/439f623876c7a40ab42e3b06459b45c6ca15f5e19021a9b892e5585598f7d398",
    "resource": {
      "resourceType": "Condition",
      "meta": {
        "profile": [ "https://www.netzwerk-universitaetsmedizin.de/fhir/StructureDefinition/chronic-lung-diseases" ]
      },
      "modifierExtension": [ {
        "url": "https://www.netzwerk-universitaetsmedizin.de/fhir/StructureDefinition/uncertainty-of-presence",
        "valueCodeableConcept": {
          "coding": [ {
            "system": "http://snomed.info/sct",
            "code": "261665006",
            "display": "Unknown (qualifier value)"
          } ],
          "text": "Presence unknown."
        }
      } ],
      "identifier": [ {
        "system": "https://mein.krankenhaus.de/fhir/NamingSystem/conditionId",
        "value": "296a20e731e9d41f23a980413b65d8cc73c4dd1aeaf7a7b479e2ac41e11e8b6a"
      } ],
      "category": [ {
        "coding": [ {
          "system": "http://snomed.info/sct",
          "code": "418112009",
          "display": "Pulmonary medicine (qualifier value)"
        } ]
      } ],
      "code": {
        "coding": [ {
          "system": "http://fhir.de/CodeSystem/dimdi/icd-10-gm",
          "version": "2021",
          "code": "G47.3"
        }, {
          "system": "http://snomed.info/sct",
          "code": "73430006"
        } ]
      },
      "subject": {
        "reference": "Patient/ed453467c56af402bc7ca7b52779dffc1fcbf4564e9c2e0b31171f1f311de03e"
      },
      "encounter": {
        "reference": "Encounter/9bf08d2957667be3cdba164221abe51c063e661403a1802e45d3ec3dd03bdd00"
      },
      "_recordedDate": {
        "extension": [ {
          "url": "http://hl7.org/fhir/StructureDefinition/data-absent-reason",
          "valueCode": "unknown"
        } ]
      }
    },
    "request": {
      "method": "POST",
      "url": "Condition",
      "ifNoneExist": "identifier=https://mein.krankenhaus.de/fhir/NamingSystem/conditionId|439f623876c7a40ab42e3b06459b45c6ca15f5e19021a9b892e5585598f7d398"
    }
  }, {
    "fullUrl": "Condition/f82a87864e853ed0b07ec176a67448772556bed436b7ed1eba7b5b8142f1ed60",
    "resource": {
      "resourceType": "Condition",
      "meta": {
        "profile": [ "https://www.netzwerk-universitaetsmedizin.de/fhir/StructureDefinition/chronic-lung-diseases" ]
      },
      "identifier": [ {
        "system": "https://mein.krankenhaus.de/fhir/NamingSystem/conditionId",
        "value": "ebef99edd4b1e1ca786cb48eca497096c71f39c237ae6b0bcf64c7eee37af67b"
      } ],
      "verificationStatus": {
        "coding": [ {
          "system": "http://terminology.hl7.org/CodeSystem/condition-ver-status",
          "code": "refuted",
          "display": "Refuted"
        }, {
          "system": "http://snomed.info/sct",
          "code": "410594000",
          "display": "Definitely NOT present (qualifier value)"
        } ]
      },
      "category": [ {
        "coding": [ {
          "system": "http://snomed.info/sct",
          "code": "418112009",
          "display": "Pulmonary medicine (qualifier value)"
        } ]
      } ],
      "code": {
        "coding": [ {
          "system": "http://fhir.de/CodeSystem/dimdi/icd-10-gm",
          "version": "2021",
          "code": "G47.31"
        }, {
          "system": "http://snomed.info/sct",
          "code": "78275009"
        } ]
      },
      "subject": {
        "reference": "Patient/ed453467c56af402bc7ca7b52779dffc1fcbf4564e9c2e0b31171f1f311de03e"
      },
      "encounter": {
        "reference": "Encounter/9bf08d2957667be3cdba164221abe51c063e661403a1802e45d3ec3dd03bdd00"
      },
      "_recordedDate": {
        "extension": [ {
          "url": "http://hl7.org/fhir/StructureDefinition/data-absent-reason",
          "valueCode": "unknown"
        } ]
      }
    },
    "request": {
      "method": "POST",
      "url": "Condition",
      "ifNoneExist": "identifier=https://mein.krankenhaus.de/fhir/NamingSystem/conditionId|f82a87864e853ed0b07ec176a67448772556bed436b7ed1eba7b5b8142f1ed60"
    }
  }, {
    "fullUrl": "Condition/08c53088bda7cd9ff39a3dde435db1d0b002388d46911a5779fb89826c921e10",
    "resource": {
      "resourceType": "Condition",
      "meta": {
        "profile": [ "https://www.netzwerk-universitaetsmedizin.de/fhir/StructureDefinition/chronic-lung-diseases" ]
      },
      "identifier": [ {
        "system": "https://mein.krankenhaus.de/fhir/NamingSystem/conditionId",
        "value": "8750c4ebb45221f23fe43b4d7e0914d97d9ec6f2b989697bfea23132bb7b0b5d"
      } ],
      "verificationStatus": {
        "coding": [ {
          "system": "http://terminology.hl7.org/CodeSystem/condition-ver-status",
          "code": "refuted",
          "display": "Refuted"
        }, {
          "system": "http://snomed.info/sct",
          "code": "410594000",
          "display": "Definitely NOT present (qualifier value)"
        } ]
      },
      "category": [ {
        "coding": [ {
          "system": "http://snomed.info/sct",
          "code": "418112009",
          "display": "Pulmonary medicine (qualifier value)"
        } ]
      } ],
      "code": {
        "coding": [ {
          "system": "http://fhir.de/CodeSystem/dimdi/icd-10-gm",
          "version": "2021",
          "code": "E84.9"
        }, {
          "system": "http://snomed.info/sct",
          "code": "190905008"
        } ]
      },
      "subject": {
        "reference": "Patient/ed453467c56af402bc7ca7b52779dffc1fcbf4564e9c2e0b31171f1f311de03e"
      },
      "encounter": {
        "reference": "Encounter/9bf08d2957667be3cdba164221abe51c063e661403a1802e45d3ec3dd03bdd00"
      },
      "_recordedDate": {
        "extension": [ {
          "url": "http://hl7.org/fhir/StructureDefinition/data-absent-reason",
          "valueCode": "unknown"
        } ]
      }
    },
    "request": {
      "method": "POST",
      "url": "Condition",
      "ifNoneExist": "identifier=https://mein.krankenhaus.de/fhir/NamingSystem/conditionId|08c53088bda7cd9ff39a3dde435db1d0b002388d46911a5779fb89826c921e10"
    }
  }, {
    "fullUrl": "Condition/859d12d4e3dd3adc7000e6b9e1dbe8bc0a4f02f35a1f2d24f2325130c7d98e59",
    "resource": {
      "resourceType": "Condition",
      "meta": {
        "profile": [ "https://www.netzwerk-universitaetsmedizin.de/fhir/StructureDefinition/chronic-lung-diseases" ]
      },
      "identifier": [ {
        "system": "https://mein.krankenhaus.de/fhir/NamingSystem/conditionId",
        "value": "fb50b180461ea837c1b2cfb7482935ccb87bd2054642776e11e8e476f937b39e"
      } ],
      "verificationStatus": {
        "coding": [ {
          "system": "http://terminology.hl7.org/CodeSystem/condition-ver-status",
          "code": "refuted",
          "display": "Refuted"
        }, {
          "system": "http://snomed.info/sct",
          "code": "410594000",
          "display": "Definitely NOT present (qualifier value)"
        } ]
      },
      "category": [ {
        "coding": [ {
          "system": "http://snomed.info/sct",
          "code": "418112009",
          "display": "Pulmonary medicine (qualifier value)"
        } ]
      } ],
      "code": {
        "coding": [ {
          "system": "http://snomed.info/sct",
          "code": "106048009"
        } ]
      },
      "subject": {
        "reference": "Patient/ed453467c56af402bc7ca7b52779dffc1fcbf4564e9c2e0b31171f1f311de03e"
      },
      "encounter": {
        "reference": "Encounter/9bf08d2957667be3cdba164221abe51c063e661403a1802e45d3ec3dd03bdd00"
      },
      "_recordedDate": {
        "extension": [ {
          "url": "http://hl7.org/fhir/StructureDefinition/data-absent-reason",
          "valueCode": "unknown"
        } ]
      }
    },
    "request": {
      "method": "POST",
      "url": "Condition",
      "ifNoneExist": "identifier=https://mein.krankenhaus.de/fhir/NamingSystem/conditionId|859d12d4e3dd3adc7000e6b9e1dbe8bc0a4f02f35a1f2d24f2325130c7d98e59"
    }
  }, {
    "fullUrl": "Condition/9f3aed08fb1f97bdea2dbac5f28c09a4c98fa9c886662b519f41335b0345fb74",
    "resource": {
      "resourceType": "Condition",
      "meta": {
        "profile": [ "https://www.netzwerk-universitaetsmedizin.de/fhir/StructureDefinition/cardiovascular-diseases" ]
      },
      "identifier": [ {
        "system": "https://mein.krankenhaus.de/fhir/NamingSystem/conditionId",
        "value": "05a3ee4700e683e4479fa6c6cec72e6250cc750f9d83353840f3fa81fb867d89"
      } ],
      "clinicalStatus": {
        "coding": [ {
          "system": "http://terminology.hl7.org/CodeSystem/condition-clinical",
          "code": "active",
          "display": "Active"
        } ]
      },
      "verificationStatus": {
        "coding": [ {
          "system": "http://terminology.hl7.org/CodeSystem/condition-ver-status",
          "code": "confirmed",
          "display": "Confirmed"
        }, {
          "system": "http://snomed.info/sct",
          "code": "410605003",
          "display": "Confirmed present (qualifier value)"
        } ]
      },
      "category": [ {
        "coding": [ {
          "system": "http://snomed.info/sct",
          "code": "722414000",
          "display": "Vascular medicine (qualifier value)"
        } ]
      } ],
      "code": {
        "coding": [ {
          "system": "http://fhir.de/CodeSystem/dimdi/icd-10-gm",
          "version": "2021",
          "code": "I25.29"
        }, {
          "system": "http://snomed.info/sct",
          "code": "417662000:246090004=22298006"
        } ]
      },
      "subject": {
        "reference": "Patient/ed453467c56af402bc7ca7b52779dffc1fcbf4564e9c2e0b31171f1f311de03e"
      },
      "encounter": {
        "reference": "Encounter/9bf08d2957667be3cdba164221abe51c063e661403a1802e45d3ec3dd03bdd00"
      },
      "_recordedDate": {
        "extension": [ {
          "url": "http://hl7.org/fhir/StructureDefinition/data-absent-reason",
          "valueCode": "unknown"
        } ]
      }
    },
    "request": {
      "method": "POST",
      "url": "Condition",
      "ifNoneExist": "identifier=https://mein.krankenhaus.de/fhir/NamingSystem/conditionId|9f3aed08fb1f97bdea2dbac5f28c09a4c98fa9c886662b519f41335b0345fb74"
    }
  }, {
    "fullUrl": "Condition/0e4ea489028b71073dd4865c6084679a337c0ef433797ecb6b02e1bdacc8dad4",
    "resource": {
      "resourceType": "Condition",
      "meta": {
        "profile": [ "https://www.netzwerk-universitaetsmedizin.de/fhir/StructureDefinition/cardiovascular-diseases" ]
      },
      "modifierExtension": [ {
        "url": "https://www.netzwerk-universitaetsmedizin.de/fhir/StructureDefinition/uncertainty-of-presence",
        "valueCodeableConcept": {
          "coding": [ {
            "system": "http://snomed.info/sct",
            "code": "261665006",
            "display": "Unknown (qualifier value)"
          } ],
          "text": "Presence unknown."
        }
      } ],
      "identifier": [ {
        "system": "https://mein.krankenhaus.de/fhir/NamingSystem/conditionId",
        "value": "061a81e19de9735906603da72b547e89394a5a64fc66b1faf4a4479802501449"
      } ],
      "category": [ {
        "coding": [ {
          "system": "http://snomed.info/sct",
          "code": "722414000",
          "display": "Vascular medicine (qualifier value)"
        } ]
      } ],
      "code": {
        "coding": [ {
          "system": "http://fhir.de/CodeSystem/dimdi/icd-10-gm",
          "version": "2021",
          "code": "I49.9"
        }, {
          "system": "http://snomed.info/sct",
          "code": "698247007"
        } ]
      },
      "subject": {
        "reference": "Patient/ed453467c56af402bc7ca7b52779dffc1fcbf4564e9c2e0b31171f1f311de03e"
      },
      "encounter": {
        "reference": "Encounter/9bf08d2957667be3cdba164221abe51c063e661403a1802e45d3ec3dd03bdd00"
      },
      "_recordedDate": {
        "extension": [ {
          "url": "http://hl7.org/fhir/StructureDefinition/data-absent-reason",
          "valueCode": "unknown"
        } ]
      }
    },
    "request": {
      "method": "POST",
      "url": "Condition",
      "ifNoneExist": "identifier=https://mein.krankenhaus.de/fhir/NamingSystem/conditionId|0e4ea489028b71073dd4865c6084679a337c0ef433797ecb6b02e1bdacc8dad4"
    }
  }, {
    "fullUrl": "Condition/65f504886691daf5f2a6a6485634a83e9d77ebb30e2107d26223a3eea99a4f5e",
    "resource": {
      "resourceType": "Condition",
      "meta": {
        "profile": [ "https://www.netzwerk-universitaetsmedizin.de/fhir/StructureDefinition/cardiovascular-diseases" ]
      },
      "modifierExtension": [ {
        "url": "https://www.netzwerk-universitaetsmedizin.de/fhir/StructureDefinition/uncertainty-of-presence",
        "valueCodeableConcept": {
          "coding": [ {
            "system": "http://snomed.info/sct",
            "code": "261665006",
            "display": "Unknown (qualifier value)"
          } ],
          "text": "Presence unknown."
        }
      } ],
      "identifier": [ {
        "system": "https://mein.krankenhaus.de/fhir/NamingSystem/conditionId",
        "value": "9777de79f678f19bea5c1838d00fd8cdf753559862ec35d5f3d16d918d5fa020"
      } ],
      "category": [ {
        "coding": [ {
          "system": "http://snomed.info/sct",
          "code": "722414000",
          "display": "Vascular medicine (qualifier value)"
        } ]
      } ],
      "code": {
        "coding": [ {
          "system": "http://fhir.de/CodeSystem/dimdi/icd-10-gm",
          "version": "2021",
          "code": "I50.9"
        }, {
          "system": "http://snomed.info/sct",
          "code": "84114007"
        } ]
      },
      "subject": {
        "reference": "Patient/ed453467c56af402bc7ca7b52779dffc1fcbf4564e9c2e0b31171f1f311de03e"
      },
      "encounter": {
        "reference": "Encounter/9bf08d2957667be3cdba164221abe51c063e661403a1802e45d3ec3dd03bdd00"
      },
      "_recordedDate": {
        "extension": [ {
          "url": "http://hl7.org/fhir/StructureDefinition/data-absent-reason",
          "valueCode": "unknown"
        } ]
      }
    },
    "request": {
      "method": "POST",
      "url": "Condition",
      "ifNoneExist": "identifier=https://mein.krankenhaus.de/fhir/NamingSystem/conditionId|65f504886691daf5f2a6a6485634a83e9d77ebb30e2107d26223a3eea99a4f5e"
    }
  }, {
    "fullUrl": "Condition/62d451d96f91c978547051f90bc3008cbb3eb6c505af4632efac578e7481fd3c",
    "resource": {
      "resourceType": "Condition",
      "meta": {
        "profile": [ "https://www.netzwerk-universitaetsmedizin.de/fhir/StructureDefinition/cardiovascular-diseases" ]
      },
      "identifier": [ {
        "system": "https://mein.krankenhaus.de/fhir/NamingSystem/conditionId",
        "value": "3c65cfd9ad7fc7aa0bdbf79cba55fbe82a34e9a2ee5a28a6df324b1a3bb1ecb5"
      } ],
      "verificationStatus": {
        "coding": [ {
          "system": "http://terminology.hl7.org/CodeSystem/condition-ver-status",
          "code": "refuted",
          "display": "Refuted"
        }, {
          "system": "http://snomed.info/sct",
          "code": "410594000",
          "display": "Definitely NOT present (qualifier value)"
        } ]
      },
      "category": [ {
        "coding": [ {
          "system": "http://snomed.info/sct",
          "code": "722414000",
          "display": "Vascular medicine (qualifier value)"
        } ]
      } ],
      "code": {
        "coding": [ {
          "system": "http://fhir.de/CodeSystem/dimdi/icd-10-gm",
          "version": "2021",
          "code": "I73.9"
        }, {
          "system": "http://snomed.info/sct",
          "code": "399957001"
        } ]
      },
      "subject": {
        "reference": "Patient/ed453467c56af402bc7ca7b52779dffc1fcbf4564e9c2e0b31171f1f311de03e"
      },
      "encounter": {
        "reference": "Encounter/9bf08d2957667be3cdba164221abe51c063e661403a1802e45d3ec3dd03bdd00"
      },
      "_recordedDate": {
        "extension": [ {
          "url": "http://hl7.org/fhir/StructureDefinition/data-absent-reason",
          "valueCode": "unknown"
        } ]
      }
    },
    "request": {
      "method": "POST",
      "url": "Condition",
      "ifNoneExist": "identifier=https://mein.krankenhaus.de/fhir/NamingSystem/conditionId|62d451d96f91c978547051f90bc3008cbb3eb6c505af4632efac578e7481fd3c"
    }
  }, {
    "fullUrl": "Condition/08757e08c34a185d12c8b51c0bb99dbc8ec145590df50de8120dec603b51a23c",
    "resource": {
      "resourceType": "Condition",
      "meta": {
        "profile": [ "https://www.netzwerk-universitaetsmedizin.de/fhir/StructureDefinition/cardiovascular-diseases" ]
      },
      "identifier": [ {
        "system": "https://mein.krankenhaus.de/fhir/NamingSystem/conditionId",
        "value": "5b34630cf67761772dfd71478cb360b95d082a08fa336e8c1d74d01ae1b1941a"
      } ],
      "verificationStatus": {
        "coding": [ {
          "system": "http://terminology.hl7.org/CodeSystem/condition-ver-status",
          "code": "refuted",
          "display": "Refuted"
        }, {
          "system": "http://snomed.info/sct",
          "code": "410594000",
          "display": "Definitely NOT present (qualifier value)"
        } ]
      },
      "category": [ {
        "coding": [ {
          "system": "http://snomed.info/sct",
          "code": "722414000",
          "display": "Vascular medicine (qualifier value)"
        } ]
      } ],
      "code": {
        "coding": [ {
          "system": "http://fhir.de/CodeSystem/dimdi/icd-10-gm",
          "version": "2021",
          "code": "Z95.5"
        }, {
          "system": "http://snomed.info/sct",
          "code": "416940007:363589002=81266008"
        } ]
      },
      "subject": {
        "reference": "Patient/ed453467c56af402bc7ca7b52779dffc1fcbf4564e9c2e0b31171f1f311de03e"
      },
      "encounter": {
        "reference": "Encounter/9bf08d2957667be3cdba164221abe51c063e661403a1802e45d3ec3dd03bdd00"
      },
      "_recordedDate": {
        "extension": [ {
          "url": "http://hl7.org/fhir/StructureDefinition/data-absent-reason",
          "valueCode": "unknown"
        } ]
      }
    },
    "request": {
      "method": "POST",
      "url": "Condition",
      "ifNoneExist": "identifier=https://mein.krankenhaus.de/fhir/NamingSystem/conditionId|08757e08c34a185d12c8b51c0bb99dbc8ec145590df50de8120dec603b51a23c"
    }
  }, {
    "fullUrl": "Condition/fdfe1cd13e77c792007086dd7eb2d02cea6dc3020971b7a6dea284dfaf8fdebd",
    "resource": {
      "resourceType": "Condition",
      "meta": {
        "profile": [ "https://www.netzwerk-universitaetsmedizin.de/fhir/StructureDefinition/cardiovascular-diseases" ]
      },
      "identifier": [ {
        "system": "https://mein.krankenhaus.de/fhir/NamingSystem/conditionId",
        "value": "f9b6541a49f4f47375ac71d94e60d07fb9c222b8e597d1c264d3bb2a22ed6021"
      } ],
      "clinicalStatus": {
        "coding": [ {
          "system": "http://terminology.hl7.org/CodeSystem/condition-clinical",
          "code": "active",
          "display": "Active"
        } ]
      },
      "verificationStatus": {
        "coding": [ {
          "system": "http://terminology.hl7.org/CodeSystem/condition-ver-status",
          "code": "confirmed",
          "display": "Confirmed"
        }, {
          "system": "http://snomed.info/sct",
          "code": "410605003",
          "display": "Confirmed present (qualifier value)"
        } ]
      },
      "category": [ {
        "coding": [ {
          "system": "http://snomed.info/sct",
          "code": "722414000",
          "display": "Vascular medicine (qualifier value)"
        } ]
      } ],
      "code": {
        "coding": [ {
          "system": "http://fhir.de/CodeSystem/dimdi/icd-10-gm",
          "version": "2021",
          "code": "I65.2"
        }, {
          "system": "http://snomed.info/sct",
          "code": "64586002"
        } ]
      },
      "subject": {
        "reference": "Patient/ed453467c56af402bc7ca7b52779dffc1fcbf4564e9c2e0b31171f1f311de03e"
      },
      "encounter": {
        "reference": "Encounter/9bf08d2957667be3cdba164221abe51c063e661403a1802e45d3ec3dd03bdd00"
      },
      "_recordedDate": {
        "extension": [ {
          "url": "http://hl7.org/fhir/StructureDefinition/data-absent-reason",
          "valueCode": "unknown"
        } ]
      }
    },
    "request": {
      "method": "POST",
      "url": "Condition",
      "ifNoneExist": "identifier=https://mein.krankenhaus.de/fhir/NamingSystem/conditionId|fdfe1cd13e77c792007086dd7eb2d02cea6dc3020971b7a6dea284dfaf8fdebd"
    }
  }, {
    "fullUrl": "Condition/b36adc990db2e125d8bb2cde008858746528e18d643f9c2b16e2c6938825616e",
    "resource": {
      "resourceType": "Condition",
      "meta": {
        "profile": [ "https://www.netzwerk-universitaetsmedizin.de/fhir/StructureDefinition/cardiovascular-diseases" ]
      },
      "identifier": [ {
        "system": "https://mein.krankenhaus.de/fhir/NamingSystem/conditionId",
        "value": "6f30e952ebd29c470fdc12182536032383a4ec606bf8b0dd16f06d899cc8d727"
      } ],
      "clinicalStatus": {
        "coding": [ {
          "system": "http://terminology.hl7.org/CodeSystem/condition-clinical",
          "code": "active",
          "display": "Active"
        } ]
      },
      "verificationStatus": {
        "coding": [ {
          "system": "http://terminology.hl7.org/CodeSystem/condition-ver-status",
          "code": "confirmed",
          "display": "Confirmed"
        }, {
          "system": "http://snomed.info/sct",
          "code": "410605003",
          "display": "Confirmed present (qualifier value)"
        } ]
      },
      "category": [ {
        "coding": [ {
          "system": "http://snomed.info/sct",
          "code": "722414000",
          "display": "Vascular medicine (qualifier value)"
        } ]
      } ],
      "code": {
        "coding": [ {
          "system": "http://fhir.de/CodeSystem/dimdi/icd-10-gm",
          "version": "2021",
          "code": "I51.6"
        }, {
          "system": "http://snomed.info/sct",
          "code": "49601007"
        } ]
      },
      "subject": {
        "reference": "Patient/ed453467c56af402bc7ca7b52779dffc1fcbf4564e9c2e0b31171f1f311de03e"
      },
      "encounter": {
        "reference": "Encounter/9bf08d2957667be3cdba164221abe51c063e661403a1802e45d3ec3dd03bdd00"
      },
      "_recordedDate": {
        "extension": [ {
          "url": "http://hl7.org/fhir/StructureDefinition/data-absent-reason",
          "valueCode": "unknown"
        } ]
      }
    },
    "request": {
      "method": "POST",
      "url": "Condition",
      "ifNoneExist": "identifier=https://mein.krankenhaus.de/fhir/NamingSystem/conditionId|b36adc990db2e125d8bb2cde008858746528e18d643f9c2b16e2c6938825616e"
    }
  }, {
    "fullUrl": "Condition/c8ef43f4dd25b0c3143fd8e4d6b02196b35bd2e3e6a793fde2131fe3801450d7",
    "resource": {
      "resourceType": "Condition",
      "meta": {
        "profile": [ "https://www.netzwerk-universitaetsmedizin.de/fhir/StructureDefinition/human-immunodeficiency-virus-infection" ]
      },
      "modifierExtension": [ {
        "url": "https://www.netzwerk-universitaetsmedizin.de/fhir/StructureDefinition/uncertainty-of-presence",
        "valueCodeableConcept": {
          "coding": [ {
            "system": "http://snomed.info/sct",
            "code": "261665006",
            "display": "Unknown (qualifier value)"
          } ],
          "text": "Presence unknown."
        }
      } ],
      "identifier": [ {
        "system": "https://mein.krankenhaus.de/fhir/NamingSystem/conditionId",
        "value": "a9f0d228a8ffe4f967030266646276a4d6b0116f5b0c5ed28e8532c886cdac1f"
      } ],
      "category": [ {
        "coding": [ {
          "system": "http://snomed.info/sct",
          "code": "394807007",
          "display": "Infectious diseases (specialty) (qualifier value)"
        } ]
      } ],
      "code": {
        "coding": [ {
          "system": "http://fhir.de/CodeSystem/dimdi/icd-10-gm",
          "version": "2021",
          "code": "B24"
        }, {
          "system": "http://snomed.info/sct",
          "code": "86406008"
        } ]
      },
      "subject": {
        "reference": "Patient/ed453467c56af402bc7ca7b52779dffc1fcbf4564e9c2e0b31171f1f311de03e"
      },
      "encounter": {
        "reference": "Encounter/9bf08d2957667be3cdba164221abe51c063e661403a1802e45d3ec3dd03bdd00"
      },
      "_recordedDate": {
        "extension": [ {
          "url": "http://hl7.org/fhir/StructureDefinition/data-absent-reason",
          "valueCode": "unknown"
        } ]
      }
    },
    "request": {
      "method": "POST",
      "url": "Condition",
      "ifNoneExist": "identifier=https://mein.krankenhaus.de/fhir/NamingSystem/conditionId|c8ef43f4dd25b0c3143fd8e4d6b02196b35bd2e3e6a793fde2131fe3801450d7"
    }
  }, {
    "fullUrl": "Condition/deca996aca22b14633023983f154617162cf0beebc3d67c3a5248656ec418d30",
    "resource": {
      "resourceType": "Condition",
      "meta": {
        "profile": [ "https://www.netzwerk-universitaetsmedizin.de/fhir/StructureDefinition/diabetes-mellitus" ]
      },
      "identifier": [ {
        "system": "https://mein.krankenhaus.de/fhir/NamingSystem/conditionId",
        "value": "b0e67c342060016345599048d4d905370425ef3910f91ba9b1a61f624de17651"
      } ],
      "verificationStatus": {
        "coding": [ {
          "system": "http://terminology.hl7.org/CodeSystem/condition-ver-status",
          "code": "confirmed",
          "display": "Confirmed"
        }, {
          "system": "http://snomed.info/sct",
          "code": "410605003",
          "display": "Confirmed present (qualifier value)"
        } ]
      },
      "category": [ {
        "coding": [ {
          "system": "http://snomed.info/sct",
          "code": "408475000",
          "display": "Diabetic medicine (qualifier value)"
        } ]
      } ],
      "code": {
        "coding": [ {
          "system": "http://snomed.info/sct",
          "code": "237599002"
        } ]
      },
      "subject": {
        "reference": "Patient/ed453467c56af402bc7ca7b52779dffc1fcbf4564e9c2e0b31171f1f311de03e"
      },
      "encounter": {
        "reference": "Encounter/9bf08d2957667be3cdba164221abe51c063e661403a1802e45d3ec3dd03bdd00"
      },
      "_recordedDate": {
        "extension": [ {
          "url": "http://hl7.org/fhir/StructureDefinition/data-absent-reason",
          "valueCode": "unknown"
        } ]
      }
    },
    "request": {
      "method": "POST",
      "url": "Condition",
      "ifNoneExist": "identifier=https://mein.krankenhaus.de/fhir/NamingSystem/conditionId|deca996aca22b14633023983f154617162cf0beebc3d67c3a5248656ec418d30"
    }
  }, {
    "fullUrl": "Condition/abdb337afbb8caf21debc5f26b927c1bf1305377cde5847fb0467eb0b891d4df",
    "resource": {
      "resourceType": "Condition",
      "meta": {
        "profile": [ "https://www.netzwerk-universitaetsmedizin.de/fhir/StructureDefinition/malignant-neoplastic-disease" ]
      },
      "identifier": [ {
        "system": "https://mein.krankenhaus.de/fhir/NamingSystem/conditionId",
        "value": "8fcb2f9256499633fe2a91a2755815ec2685295f76e061ffe130e80cb52fc824"
      } ],
      "verificationStatus": {
        "coding": [ {
          "system": "http://terminology.hl7.org/CodeSystem/condition-ver-status",
          "code": "refuted",
          "display": "Refuted"
        }, {
          "system": "http://snomed.info/sct",
          "code": "410594000",
          "display": "Definitely NOT present (qualifier value)"
        } ]
      },
      "category": [ {
        "coding": [ {
          "system": "http://snomed.info/sct",
          "code": "394593009",
          "display": "Medical oncology (qualifier value)"
        } ]
      } ],
      "code": {
        "coding": [ {
          "system": "http://fhir.de/CodeSystem/dimdi/icd-10-gm",
          "version": "2021",
          "code": "C80.9"
        }, {
          "system": "http://snomed.info/sct",
          "code": "363346000"
        } ]
      },
      "subject": {
        "reference": "Patient/ed453467c56af402bc7ca7b52779dffc1fcbf4564e9c2e0b31171f1f311de03e"
      },
      "encounter": {
        "reference": "Encounter/9bf08d2957667be3cdba164221abe51c063e661403a1802e45d3ec3dd03bdd00"
      },
      "_recordedDate": {
        "extension": [ {
          "url": "http://hl7.org/fhir/StructureDefinition/data-absent-reason",
          "valueCode": "unknown"
        } ]
      }
    },
    "request": {
      "method": "POST",
      "url": "Condition",
      "ifNoneExist": "identifier=https://mein.krankenhaus.de/fhir/NamingSystem/conditionId|abdb337afbb8caf21debc5f26b927c1bf1305377cde5847fb0467eb0b891d4df"
    }
  }, {
    "fullUrl": "Condition/2fea001fb8d6782b8ebb67afcaebe8fae3275c36591bdfa78a002df6a5932ef6",
    "resource": {
      "resourceType": "Condition",
      "meta": {
        "profile": [ "https://www.netzwerk-universitaetsmedizin.de/fhir/StructureDefinition/chronic-kidney-diseases" ]
      },
      "identifier": [ {
        "system": "https://mein.krankenhaus.de/fhir/NamingSystem/conditionId",
        "value": "5019ed33e5c982378a67227edd45b8d7e5bc550133f3c910b3e7588ef8da0699"
      } ],
      "clinicalStatus": {
        "coding": [ {
          "system": "http://terminology.hl7.org/CodeSystem/condition-clinical",
          "code": "active",
          "display": "Active"
        } ]
      },
      "verificationStatus": {
        "coding": [ {
          "system": "http://terminology.hl7.org/CodeSystem/condition-ver-status",
          "code": "confirmed",
          "display": "Confirmed"
        }, {
          "system": "http://snomed.info/sct",
          "code": "410605003",
          "display": "Confirmed present (qualifier value)"
        } ]
      },
      "category": [ {
        "coding": [ {
          "system": "http://snomed.info/sct",
          "code": "394589003",
          "display": "Nephrology (qualifier value)"
        } ]
      } ],
      "code": {
        "coding": [ {
          "system": "http://fhir.de/CodeSystem/dimdi/icd-10-gm",
          "version": "2021",
          "code": "Z99.2"
        }, {
          "system": "http://snomed.info/sct",
          "code": "714152005"
        } ]
      },
      "subject": {
        "reference": "Patient/ed453467c56af402bc7ca7b52779dffc1fcbf4564e9c2e0b31171f1f311de03e"
      },
      "encounter": {
        "reference": "Encounter/9bf08d2957667be3cdba164221abe51c063e661403a1802e45d3ec3dd03bdd00"
      },
      "_recordedDate": {
        "extension": [ {
          "url": "http://hl7.org/fhir/StructureDefinition/data-absent-reason",
          "valueCode": "unknown"
        } ]
      }
    },
    "request": {
      "method": "POST",
      "url": "Condition",
      "ifNoneExist": "identifier=https://mein.krankenhaus.de/fhir/NamingSystem/conditionId|2fea001fb8d6782b8ebb67afcaebe8fae3275c36591bdfa78a002df6a5932ef6"
    }
  }, {
    "fullUrl": "Condition/ff00dc89dfb6a6219da19e99cd5ede8760d41fa53213166f58e7d910de3a0af5",
    "resource": {
      "resourceType": "Condition",
      "meta": {
        "profile": [ "https://www.netzwerk-universitaetsmedizin.de/fhir/StructureDefinition/gastrointestinal-ulcers" ]
      },
      "identifier": [ {
        "system": "https://mein.krankenhaus.de/fhir/NamingSystem/conditionId",
        "value": "fcb34ee4e806988c13b5a247b8e05875df94c8b740e0008248439fcb0fdf7376"
      } ],
      "clinicalStatus": {
        "coding": [ {
          "system": "http://terminology.hl7.org/CodeSystem/condition-clinical",
          "code": "active",
          "display": "Active"
        } ]
      },
      "verificationStatus": {
        "coding": [ {
          "system": "http://terminology.hl7.org/CodeSystem/condition-ver-status",
          "code": "confirmed",
          "display": "Confirmed"
        }, {
          "system": "http://snomed.info/sct",
          "code": "410605003",
          "display": "Confirmed present (qualifier value)"
        } ]
      },
      "category": [ {
        "coding": [ {
          "system": "http://snomed.info/sct",
          "code": "394584008",
          "display": "Gastroenterology (qualifier value))"
        } ]
      } ],
      "code": {
        "coding": [ {
          "system": "http://fhir.de/CodeSystem/dimdi/icd-10-gm",
          "version": "2021",
          "code": "K28"
        }, {
          "system": "http://snomed.info/sct",
          "code": "40845000"
        } ]
      },
      "subject": {
        "reference": "Patient/ed453467c56af402bc7ca7b52779dffc1fcbf4564e9c2e0b31171f1f311de03e"
      },
      "encounter": {
        "reference": "Encounter/9bf08d2957667be3cdba164221abe51c063e661403a1802e45d3ec3dd03bdd00"
      },
      "_recordedDate": {
        "extension": [ {
          "url": "http://hl7.org/fhir/StructureDefinition/data-absent-reason",
          "valueCode": "unknown"
        } ]
      }
    },
    "request": {
      "method": "POST",
      "url": "Condition",
      "ifNoneExist": "identifier=https://mein.krankenhaus.de/fhir/NamingSystem/conditionId|ff00dc89dfb6a6219da19e99cd5ede8760d41fa53213166f58e7d910de3a0af5"
    }
  }, {
    "fullUrl": "Observation/7f8913d166a5b41762b9a78bc37bf5c2df93568311ff96cc5357de6266fa1170",
    "resource": {
      "resourceType": "Observation",
      "meta": {
        "profile": [ "https://www.netzwerk-universitaetsmedizin.de/fhir/StructureDefinition/smoking-status" ]
      },
      "identifier": [ {
        "system": "https://mein.krankenhaus.de/fhir/NamingSystem/observationId",
        "value": "eed891e65086e0ae8cb08331db10c92ddef6d357cf0181f50b8f08d1cce44f02"
      } ],
      "status": "final",
      "category": [ {
        "coding": [ {
          "system": "http://terminology.hl7.org/CodeSystem/observation-category",
          "code": "social-history",
          "display": "Social History"
        } ]
      } ],
      "code": {
        "coding": [ {
          "system": "http://loinc.org",
          "code": "72166-2"
        } ]
      },
      "subject": {
        "reference": "Patient/ed453467c56af402bc7ca7b52779dffc1fcbf4564e9c2e0b31171f1f311de03e"
      },
      "encounter": {
        "reference": "Encounter/9bf08d2957667be3cdba164221abe51c063e661403a1802e45d3ec3dd03bdd00"
      },
      "_effectiveDateTime": {
        "extension": [ {
          "url": "http://hl7.org/fhir/StructureDefinition/data-absent-reason",
          "valueCode": "unknown"
        } ]
      },
      "valueCodeableConcept": {
        "coding": [ {
          "system": "http://loinc.org",
          "code": "LA18976-3"
        } ]
      }
    },
    "request": {
      "method": "POST",
      "url": "Observation",
      "ifNoneExist": "identifier=https://mein.krankenhaus.de/fhir/NamingSystem/observationId|7f8913d166a5b41762b9a78bc37bf5c2df93568311ff96cc5357de6266fa1170"
    }
  }, {
    "fullUrl": "Immunization/d96836dd1bbbdb3dfaa345f919309e2730b879a27c38c1a064d6be46e4108a58",
    "resource": {
      "resourceType": "Immunization",
      "meta": {
        "profile": [ "https://www.netzwerk-universitaetsmedizin.de/fhir/StructureDefinition/immunization" ]
      },
      "identifier": [ {
        "system": "https://mein.krankenhaus.de/fhir/NamingSystem/immunizationId",
        "value": "28f88bf4f5c60666f200504b5d270d22ddf9c516570be2c320a96f4c246b7685"
      } ],
      "status": "completed",
      "vaccineCode": {
        "coding": [ {
          "system": "http://snomed.info/sct",
          "code": "836377006"
        } ]
      },
      "patient": {
        "reference": "Patient/ed453467c56af402bc7ca7b52779dffc1fcbf4564e9c2e0b31171f1f311de03e"
      },
      "encounter": {
        "reference": "Encounter/9bf08d2957667be3cdba164221abe51c063e661403a1802e45d3ec3dd03bdd00"
      },
      "occurrenceDateTime": "2020-09-13",
      "protocolApplied": [ {
        "targetDisease": [ {
          "coding": [ {
            "system": "http://snomed.info/sct",
            "code": "6142004"
          } ]
        } ],
        "_doseNumberString": {
          "extension": [ {
            "url": "http://hl7.org/fhir/StructureDefinition/data-absent-reason",
            "valueCode": "unknown"
          } ]
        }
      } ]
    },
    "request": {
      "method": "POST",
      "url": "Immunization",
      "ifNoneExist": "identifier=https://mein.krankenhaus.de/fhir/NamingSystem/immunizationId|d96836dd1bbbdb3dfaa345f919309e2730b879a27c38c1a064d6be46e4108a58"
    }
  }, {
    "fullUrl": "Immunization/a8af87779081aa38541706d9ce69ef5a172951c5006087fac1a25b95855aca73",
    "resource": {
      "resourceType": "Immunization",
      "meta": {
        "profile": [ "https://www.netzwerk-universitaetsmedizin.de/fhir/StructureDefinition/immunization" ]
      },
      "identifier": [ {
        "system": "https://mein.krankenhaus.de/fhir/NamingSystem/immunizationId",
        "value": "676764d07a3137b64d6f0fb3ea9969239b6e62e428c6e728647c767b6c295d9b"
      } ],
      "status": "not-done",
      "vaccineCode": {
        "coding": [ {
          "system": "http://snomed.info/sct",
          "code": "836402002"
        } ]
      },
      "patient": {
        "reference": "Patient/ed453467c56af402bc7ca7b52779dffc1fcbf4564e9c2e0b31171f1f311de03e"
      },
      "encounter": {
        "reference": "Encounter/9bf08d2957667be3cdba164221abe51c063e661403a1802e45d3ec3dd03bdd00"
      },
      "_occurrenceDateTime": {
        "extension": [ {
          "url": "http://hl7.org/fhir/StructureDefinition/data-absent-reason",
          "valueCode": "unknown"
        } ]
      },
      "protocolApplied": [ {
        "targetDisease": [ {
          "coding": [ {
            "system": "http://snomed.info/sct",
            "code": "56717001"
          } ]
        } ],
        "_doseNumberString": {
          "extension": [ {
            "url": "http://hl7.org/fhir/StructureDefinition/data-absent-reason",
            "valueCode": "unknown"
          } ]
        }
      } ]
    },
    "request": {
      "method": "POST",
      "url": "Immunization",
      "ifNoneExist": "identifier=https://mein.krankenhaus.de/fhir/NamingSystem/immunizationId|a8af87779081aa38541706d9ce69ef5a172951c5006087fac1a25b95855aca73"
    }
  }, {
    "fullUrl": "Immunization/a5cbf9485bf0c3d01e497ea828b105296486da29e7bde976f9d741d0ac990713",
    "resource": {
      "resourceType": "Immunization",
      "meta": {
        "profile": [ "https://www.netzwerk-universitaetsmedizin.de/fhir/StructureDefinition/immunization" ]
      },
      "identifier": [ {
        "system": "https://mein.krankenhaus.de/fhir/NamingSystem/immunizationId",
        "value": "747ab1d7e83fd75d5392baf5f5faaaa8dac57bfbf0c07496191bbf666c4857b5"
      } ],
      "status": "not-done",
      "vaccineCode": {
        "coding": [ {
          "system": "http://snomed.info/sct",
          "code": "1119349007"
        } ]
      },
      "patient": {
        "reference": "Patient/ed453467c56af402bc7ca7b52779dffc1fcbf4564e9c2e0b31171f1f311de03e"
      },
      "encounter": {
        "reference": "Encounter/9bf08d2957667be3cdba164221abe51c063e661403a1802e45d3ec3dd03bdd00"
      },
      "_occurrenceDateTime": {
        "extension": [ {
          "url": "http://hl7.org/fhir/StructureDefinition/data-absent-reason",
          "valueCode": "unknown"
        } ]
      },
      "protocolApplied": [ {
        "targetDisease": [ {
          "coding": [ {
            "system": "http://snomed.info/sct",
            "code": "840539006"
          } ]
        } ],
        "_doseNumberString": {
          "extension": [ {
            "url": "http://hl7.org/fhir/StructureDefinition/data-absent-reason",
            "valueCode": "unknown"
          } ]
        }
      } ]
    },
    "request": {
      "method": "POST",
      "url": "Immunization",
      "ifNoneExist": "identifier=https://mein.krankenhaus.de/fhir/NamingSystem/immunizationId|a5cbf9485bf0c3d01e497ea828b105296486da29e7bde976f9d741d0ac990713"
    }
  }, {
    "fullUrl": "Immunization/94534edb9dcdceab4f81a10e59238cb9f0b4e3c4a04ffc82c1c5e982f8f037fb",
    "resource": {
      "resourceType": "Immunization",
      "meta": {
        "profile": [ "https://www.netzwerk-universitaetsmedizin.de/fhir/StructureDefinition/immunization" ]
      },
      "identifier": [ {
        "system": "https://mein.krankenhaus.de/fhir/NamingSystem/immunizationId",
        "value": "b6492009c8e2331edc3dbe1b7ae1520fc4abff943454140f488c72beeaac7d46"
      } ],
      "status": "not-done",
      "vaccineCode": {
        "coding": [ {
          "system": "http://hl7.org/fhir/uv/ips/CodeSystem/absent-unknown-uv-ips",
          "code": "no-known-immunizations",
          "display": "vaccineCode unknown"
        } ]
      },
      "patient": {
        "reference": "Patient/ed453467c56af402bc7ca7b52779dffc1fcbf4564e9c2e0b31171f1f311de03e"
      },
      "encounter": {
        "reference": "Encounter/9bf08d2957667be3cdba164221abe51c063e661403a1802e45d3ec3dd03bdd00"
      },
      "_occurrenceDateTime": {
        "extension": [ {
          "url": "http://hl7.org/fhir/StructureDefinition/data-absent-reason",
          "valueCode": "unknown"
        } ]
      },
      "protocolApplied": [ {
        "targetDisease": [ {
          "coding": [ {
            "system": "http://snomed.info/sct",
            "code": "64572001",
            "display": "targetDisease unknown"
          } ]
        } ],
        "_doseNumberString": {
          "extension": [ {
            "url": "http://hl7.org/fhir/StructureDefinition/data-absent-reason",
            "valueCode": "unknown"
          } ]
        }
      } ]
    },
    "request": {
      "method": "POST",
      "url": "Immunization",
      "ifNoneExist": "identifier=https://mein.krankenhaus.de/fhir/NamingSystem/immunizationId|94534edb9dcdceab4f81a10e59238cb9f0b4e3c4a04ffc82c1c5e982f8f037fb"
    }
  }, {
    "fullUrl": "Consent/364234cdbdd93dc231375ffee10f9d65f5397f2b5c8831d06f16cc6a88c3769d",
    "resource": {
      "resourceType": "Consent",
      "meta": {
        "profile": [ "https://www.netzwerk-universitaetsmedizin.de/fhir/StructureDefinition/do-not-resuscitate-order" ]
      },
      "identifier": [ {
        "system": "https://mein.krankenhaus.de/fhir/NamingSystem/consentId",
        "value": "d808dc44b4947f8906b31439b352b564d287c41deee4387b515ba34db0c3b8eb"
      } ],
      "status": "active",
      "scope": {
        "coding": [ {
          "system": "http://terminology.hl7.org/CodeSystem/consentscope",
          "code": "adr",
          "display": "Advanced Care Directive"
        } ]
      },
      "category": [ {
        "coding": [ {
          "system": "http://terminology.hl7.org/CodeSystem/consentcategorycodes",
          "code": "dnr",
          "display": "Do Not Resuscitate"
        } ]
      } ],
      "patient": {
        "reference": "Patient/ed453467c56af402bc7ca7b52779dffc1fcbf4564e9c2e0b31171f1f311de03e"
      },
      "policy": [ {
        "uri": "https://www.aerzteblatt.de/archiv/65440/DNR-Anordnungen-Das-fehlende-Bindeglied"
      } ],
      "provision": {
        "code": [ {
          "coding": [ {
            "system": "http://snomed.info/sct",
            "code": "304253006"
          } ]
        } ]
      }
    },
    "request": {
      "method": "POST",
      "url": "Consent",
      "ifNoneExist": "identifier=https://mein.krankenhaus.de/fhir/NamingSystem/consentId|364234cdbdd93dc231375ffee10f9d65f5397f2b5c8831d06f16cc6a88c3769d"
    }
  }, {
    "fullUrl": "Observation/0202b6fc6dbf38771ee7b73259c23bfad79cf79a31690ecf09639eed7fd9bd91",
    "resource": {
      "resourceType": "Observation",
      "meta": {
        "profile": [ "https://www.netzwerk-universitaetsmedizin.de/fhir/StructureDefinition/sex-assigned-at-birth" ]
      },
      "identifier": [ {
        "system": "https://mein.krankenhaus.de/fhir/NamingSystem/observationId",
        "value": "0f324b78b3c152c8b8d6d7b78ba6916acf5a1ca4b6e4ede8c974de4f1086f1bd"
      } ],
      "status": "final",
      "category": [ {
        "coding": [ {
          "system": "http://terminology.hl7.org/CodeSystem/observation-category",
          "code": "social-history",
          "display": "Social History"
        } ]
      } ],
      "code": {
        "coding": [ {
          "system": "http://loinc.org",
          "code": "76689-9"
        } ]
      },
      "subject": {
        "reference": "Patient/ed453467c56af402bc7ca7b52779dffc1fcbf4564e9c2e0b31171f1f311de03e"
      },
      "encounter": {
        "reference": "Encounter/9bf08d2957667be3cdba164221abe51c063e661403a1802e45d3ec3dd03bdd00"
      },
      "_effectiveDateTime": {
        "extension": [ {
          "url": "http://hl7.org/fhir/StructureDefinition/data-absent-reason",
          "valueCode": "unknown"
        } ]
      },
      "valueCodeableConcept": {
        "coding": [ {
          "system": "http://fhir.de/CodeSystem/gender-amtlich-de",
          "code": "X"
        } ]
      }
    },
    "request": {
      "method": "POST",
      "url": "Observation",
      "ifNoneExist": "identifier=https://mein.krankenhaus.de/fhir/NamingSystem/observationId|0202b6fc6dbf38771ee7b73259c23bfad79cf79a31690ecf09639eed7fd9bd91"
    }
  }, {
    "fullUrl": "Observation/4e2131464ef06fa2dd42b11678be7344749d10a72dd7759c591dd2252a495491",
    "resource": {
      "resourceType": "Observation",
      "meta": {
        "profile": [ "https://www.netzwerk-universitaetsmedizin.de/fhir/StructureDefinition/body-weight" ]
      },
      "identifier": [ {
        "type": {
          "coding": [ {
            "system": "http://terminology.hl7.org/CodeSystem/v2-0203",
            "code": "OBI",
            "display": "Observation Instance Identifier"
          } ]
        },
        "system": "https://mein.krankenhaus.de/fhir/NamingSystem/observationId",
        "value": "a0d379660e91596f382d76be3ee8e5fb0baec19e55274da16ce8636067228963",
        "assigner": {
          "reference": "Organization/3a4f3433bce81181bad2d8e0b8fafccf7dc800bc06f29be73dcb38b750a48f9a"
        }
      } ],
      "status": "final",
      "category": [ {
        "coding": [ {
          "system": "http://terminology.hl7.org/CodeSystem/observation-category",
          "code": "vital-signs",
          "display": "Vital Signs"
        } ]
      } ],
      "code": {
        "coding": [ {
          "system": "http://loinc.org",
          "code": "29463-7"
        }, {
          "system": "http://snomed.info/sct",
          "code": "27113001"
        } ],
        "text": "Body Weight"
      },
      "subject": {
        "reference": "Patient/ed453467c56af402bc7ca7b52779dffc1fcbf4564e9c2e0b31171f1f311de03e"
      },
      "encounter": {
        "reference": "Encounter/9bf08d2957667be3cdba164221abe51c063e661403a1802e45d3ec3dd03bdd00"
      },
      "_effectiveDateTime": {
        "extension": [ {
          "url": "http://hl7.org/fhir/StructureDefinition/data-absent-reason",
          "valueCode": "unknown"
        } ]
      },
      "valueQuantity": {
        "value": 84,
        "unit": "kilogram",
        "system": "http://unitsofmeasure.org",
        "code": "kg"
      }
    },
    "request": {
      "method": "POST",
      "url": "Observation",
      "ifNoneExist": "identifier=https://mein.krankenhaus.de/fhir/NamingSystem/observationId|4e2131464ef06fa2dd42b11678be7344749d10a72dd7759c591dd2252a495491"
    }
  }, {
    "fullUrl": "Observation/68b66b60d979fa3c76fcb62a7964c424cd30eed4f1384b4ede5bf909306a0f5d",
    "resource": {
      "resourceType": "Observation",
      "meta": {
        "profile": [ "https://www.netzwerk-universitaetsmedizin.de/fhir/StructureDefinition/body-height" ]
      },
      "identifier": [ {
        "type": {
          "coding": [ {
            "system": "http://terminology.hl7.org/CodeSystem/v2-0203",
            "code": "OBI",
            "display": "Observation Instance Identifier"
          } ]
        },
        "system": "https://mein.krankenhaus.de/fhir/NamingSystem/observationId",
        "value": "dd9b7692c3c1e3454aac060a9965459d60d843060bcf1e8057ce3e174efbcd09",
        "assigner": {
          "reference": "Organization/3a4f3433bce81181bad2d8e0b8fafccf7dc800bc06f29be73dcb38b750a48f9a"
        }
      } ],
      "status": "final",
      "category": [ {
        "coding": [ {
          "system": "http://terminology.hl7.org/CodeSystem/observation-category",
          "code": "vital-signs",
          "display": "Vital Signs"
        } ]
      } ],
      "code": {
        "coding": [ {
          "system": "http://loinc.org",
          "code": "8302-2"
        }, {
          "system": "http://snomed.info/sct",
          "code": "50373000"
        } ],
        "text": "Body height"
      },
      "subject": {
        "reference": "Patient/ed453467c56af402bc7ca7b52779dffc1fcbf4564e9c2e0b31171f1f311de03e"
      },
      "encounter": {
        "reference": "Encounter/9bf08d2957667be3cdba164221abe51c063e661403a1802e45d3ec3dd03bdd00"
      },
      "_effectiveDateTime": {
        "extension": [ {
          "url": "http://hl7.org/fhir/StructureDefinition/data-absent-reason",
          "valueCode": "unknown"
        } ]
      },
      "valueQuantity": {
        "value": 18,
        "unit": "centimeter",
        "system": "http://unitsofmeasure.org",
        "code": "cm"
      }
    },
    "request": {
      "method": "POST",
      "url": "Observation",
      "ifNoneExist": "identifier=https://mein.krankenhaus.de/fhir/NamingSystem/observationId|68b66b60d979fa3c76fcb62a7964c424cd30eed4f1384b4ede5bf909306a0f5d"
    }
  }, {
    "fullUrl": "Observation/fe0c339c7d9e427606ecbc9548fc20d439dc002f1298200d9c80b8e234e90955",
    "resource": {
      "resourceType": "Observation",
      "meta": {
        "profile": [ "https://www.netzwerk-universitaetsmedizin.de/fhir/StructureDefinition/known-exposure" ]
      },
      "identifier": [ {
        "type": {
          "coding": [ {
            "system": "http://terminology.hl7.org/CodeSystem/v2-0203",
            "code": "OBI",
            "display": "Observation Instance Identifier"
          } ]
        },
        "system": "https://mein.krankenhaus.de/fhir/NamingSystem/observationId",
        "value": "013c6cb8dbb0bc496a77aa5521cbd2e14cf2d8cb324888e6a30c54f104fc8892",
        "assigner": {
          "reference": "Organization/3a4f3433bce81181bad2d8e0b8fafccf7dc800bc06f29be73dcb38b750a48f9a"
        }
      } ],
      "status": "final",
      "category": [ {
        "coding": [ {
          "system": "http://terminology.hl7.org/CodeSystem/observation-category",
          "code": "social-history",
          "display": "Social History"
        } ]
      } ],
      "code": {
        "coding": [ {
          "system": "http://loinc.org",
          "code": "88636-6"
        } ],
        "text": "Known exposure"
      },
      "subject": {
        "reference": "Patient/ed453467c56af402bc7ca7b52779dffc1fcbf4564e9c2e0b31171f1f311de03e"
      },
      "encounter": {
        "reference": "Encounter/9bf08d2957667be3cdba164221abe51c063e661403a1802e45d3ec3dd03bdd00"
      },
      "_effectiveDateTime": {
        "extension": [ {
          "url": "http://hl7.org/fhir/StructureDefinition/data-absent-reason",
          "valueCode": "unknown"
        } ]
      },
      "dataAbsentReason": {
        "coding": [ {
          "system": "http://terminology.hl7.org/CodeSystem/data-absent-reason",
          "code": "unknown",
          "display": "Unknown"
        } ]
      }
    },
    "request": {
      "method": "POST",
      "url": "Observation",
      "ifNoneExist": "identifier=https://mein.krankenhaus.de/fhir/NamingSystem/observationId|fe0c339c7d9e427606ecbc9548fc20d439dc002f1298200d9c80b8e234e90955"
    }
  }, {
    "fullUrl": "Condition/4cfd3a319e1e092f1afa2772d0e0c7d84d3c37e3014b75cab396b65f1cf068f2",
    "resource": {
      "resourceType": "Condition",
      "meta": {
        "profile": [ "https://www.netzwerk-universitaetsmedizin.de/fhir/StructureDefinition/symptoms-covid-19" ]
      },
      "identifier": [ {
        "system": "https://mein.krankenhaus.de/fhir/NamingSystem/conditionId",
        "value": "a4eef223d6d4c75ac6be69761b7ea507e6b1fd8efe0101bacfb2cb6a5e0cf84a"
      } ],
      "clinicalStatus": {
        "coding": [ {
          "system": "http://terminology.hl7.org/CodeSystem/condition-clinical",
          "code": "active",
          "display": "Active"
        } ]
      },
      "verificationStatus": {
        "coding": [ {
          "system": "http://terminology.hl7.org/CodeSystem/condition-ver-status",
          "code": "confirmed",
          "display": "Confirmed"
        }, {
          "system": "http://snomed.info/sct",
          "code": "410605003",
          "display": "Confirmed present (qualifier value)"
        } ]
      },
      "category": [ {
        "coding": [ {
          "system": "http://loinc.org",
          "code": "75325-1"
        } ]
      } ],
      "severity": {
        "coding": [ {
          "system": "http://snomed.info/sct",
          "code": "442452003"
        } ]
      },
      "code": {
        "coding": [ {
          "system": "http://snomed.info/sct",
          "code": "21522001"
        } ]
      },
      "subject": {
        "reference": "Patient/ed453467c56af402bc7ca7b52779dffc1fcbf4564e9c2e0b31171f1f311de03e"
      },
      "encounter": {
        "reference": "Encounter/9bf08d2957667be3cdba164221abe51c063e661403a1802e45d3ec3dd03bdd00"
      },
      "_recordedDate": {
        "extension": [ {
          "url": "http://hl7.org/fhir/StructureDefinition/data-absent-reason",
          "valueCode": "unknown"
        } ]
      }
    },
    "request": {
      "method": "POST",
      "url": "Condition",
      "ifNoneExist": "identifier=https://mein.krankenhaus.de/fhir/NamingSystem/conditionId|4cfd3a319e1e092f1afa2772d0e0c7d84d3c37e3014b75cab396b65f1cf068f2"
    }
  }, {
    "fullUrl": "Condition/f732e5ce3516a26b50e702d85a03c4e487dbb3191398fec791292a27c1b42ed3",
    "resource": {
      "resourceType": "Condition",
      "meta": {
        "profile": [ "https://www.netzwerk-universitaetsmedizin.de/fhir/StructureDefinition/symptoms-covid-19" ]
      },
      "identifier": [ {
        "system": "https://mein.krankenhaus.de/fhir/NamingSystem/conditionId",
        "value": "e1e9284bccc11f321409337ef01bb5c603181184ea06359d0324c1ea492a7a67"
      } ],
      "clinicalStatus": {
        "coding": [ {
          "system": "http://terminology.hl7.org/CodeSystem/condition-clinical",
          "code": "active",
          "display": "Active"
        } ]
      },
      "verificationStatus": {
        "coding": [ {
          "system": "http://terminology.hl7.org/CodeSystem/condition-ver-status",
          "code": "refuted",
          "display": "Refuted"
        }, {
          "system": "http://snomed.info/sct",
          "code": "410594000",
          "display": "Definitely NOT present (qualifier value)"
        } ]
      },
      "category": [ {
        "coding": [ {
          "system": "http://loinc.org",
          "code": "75325-1"
        } ]
      } ],
      "code": {
        "coding": [ {
          "system": "http://snomed.info/sct",
          "code": "40917007"
        } ]
      },
      "subject": {
        "reference": "Patient/ed453467c56af402bc7ca7b52779dffc1fcbf4564e9c2e0b31171f1f311de03e"
      },
      "encounter": {
        "reference": "Encounter/9bf08d2957667be3cdba164221abe51c063e661403a1802e45d3ec3dd03bdd00"
      },
      "_recordedDate": {
        "extension": [ {
          "url": "http://hl7.org/fhir/StructureDefinition/data-absent-reason",
          "valueCode": "unknown"
        } ]
      }
    },
    "request": {
      "method": "POST",
      "url": "Condition",
      "ifNoneExist": "identifier=https://mein.krankenhaus.de/fhir/NamingSystem/conditionId|f732e5ce3516a26b50e702d85a03c4e487dbb3191398fec791292a27c1b42ed3"
    }
  }, {
    "fullUrl": "Condition/a865abfa3f29cbf50fc17dab7061ee9714f2aae75b58eed9442151a77cd9d331",
    "resource": {
      "resourceType": "Condition",
      "meta": {
        "profile": [ "https://www.netzwerk-universitaetsmedizin.de/fhir/StructureDefinition/symptoms-covid-19" ]
      },
      "identifier": [ {
        "system": "https://mein.krankenhaus.de/fhir/NamingSystem/conditionId",
        "value": "a4d62a92cd34997b35ec4886def362bc3223f8ee9748fb2346601eae4c163f7a"
      } ],
      "clinicalStatus": {
        "coding": [ {
          "system": "http://terminology.hl7.org/CodeSystem/condition-clinical",
          "code": "active",
          "display": "Active"
        } ]
      },
      "verificationStatus": {
        "coding": [ {
          "system": "http://terminology.hl7.org/CodeSystem/condition-ver-status",
          "code": "refuted",
          "display": "Refuted"
        }, {
          "system": "http://snomed.info/sct",
          "code": "410594000",
          "display": "Definitely NOT present (qualifier value)"
        } ]
      },
      "category": [ {
        "coding": [ {
          "system": "http://loinc.org",
          "code": "75325-1"
        } ]
      } ],
      "code": {
        "coding": [ {
          "system": "http://snomed.info/sct",
          "code": "62315008"
        } ]
      },
      "subject": {
        "reference": "Patient/ed453467c56af402bc7ca7b52779dffc1fcbf4564e9c2e0b31171f1f311de03e"
      },
      "encounter": {
        "reference": "Encounter/9bf08d2957667be3cdba164221abe51c063e661403a1802e45d3ec3dd03bdd00"
      },
      "_recordedDate": {
        "extension": [ {
          "url": "http://hl7.org/fhir/StructureDefinition/data-absent-reason",
          "valueCode": "unknown"
        } ]
      }
    },
    "request": {
      "method": "POST",
      "url": "Condition",
      "ifNoneExist": "identifier=https://mein.krankenhaus.de/fhir/NamingSystem/conditionId|a865abfa3f29cbf50fc17dab7061ee9714f2aae75b58eed9442151a77cd9d331"
    }
  }, {
    "fullUrl": "Condition/f592afc93d422e05b3b8513aeb58ba7664823db409a81ebe060208f7ac2ffcb8",
    "resource": {
      "resourceType": "Condition",
      "meta": {
        "profile": [ "https://www.netzwerk-universitaetsmedizin.de/fhir/StructureDefinition/symptoms-covid-19" ]
      },
      "identifier": [ {
        "system": "https://mein.krankenhaus.de/fhir/NamingSystem/conditionId",
        "value": "9ccdc72c460bf25c5689971437c533dfb81c408c9f35758ddc637e7ec1675110"
      } ],
      "clinicalStatus": {
        "coding": [ {
          "system": "http://terminology.hl7.org/CodeSystem/condition-clinical",
          "code": "active",
          "display": "Active"
        } ]
      },
      "verificationStatus": {
        "coding": [ {
          "system": "http://terminology.hl7.org/CodeSystem/condition-ver-status",
          "code": "confirmed",
          "display": "Confirmed"
        }, {
          "system": "http://snomed.info/sct",
          "code": "410605003",
          "display": "Confirmed present (qualifier value)"
        } ]
      },
      "category": [ {
        "coding": [ {
          "system": "http://loinc.org",
          "code": "75325-1"
        } ]
      } ],
      "severity": {
        "coding": [ {
          "system": "http://snomed.info/sct",
          "code": "24484000"
        } ]
      },
      "code": {
        "coding": [ {
          "system": "http://snomed.info/sct",
          "code": "422400008"
        } ]
      },
      "subject": {
        "reference": "Patient/ed453467c56af402bc7ca7b52779dffc1fcbf4564e9c2e0b31171f1f311de03e"
      },
      "encounter": {
        "reference": "Encounter/9bf08d2957667be3cdba164221abe51c063e661403a1802e45d3ec3dd03bdd00"
      },
      "_recordedDate": {
        "extension": [ {
          "url": "http://hl7.org/fhir/StructureDefinition/data-absent-reason",
          "valueCode": "unknown"
        } ]
      }
    },
    "request": {
      "method": "POST",
      "url": "Condition",
      "ifNoneExist": "identifier=https://mein.krankenhaus.de/fhir/NamingSystem/conditionId|f592afc93d422e05b3b8513aeb58ba7664823db409a81ebe060208f7ac2ffcb8"
    }
  }, {
    "fullUrl": "Condition/a0d37929ece1cad12d6cb8e4a05b247334d53c3428c6719cf5b8c87e9f29358e",
    "resource": {
      "resourceType": "Condition",
      "meta": {
        "profile": [ "https://www.netzwerk-universitaetsmedizin.de/fhir/StructureDefinition/symptoms-covid-19" ]
      },
      "identifier": [ {
        "system": "https://mein.krankenhaus.de/fhir/NamingSystem/conditionId",
        "value": "9ebe02ebd0637b48937875785bc950c0ae3d5dd4030ed6335db7e16c05ee35e7"
      } ],
      "clinicalStatus": {
        "coding": [ {
          "system": "http://terminology.hl7.org/CodeSystem/condition-clinical",
          "code": "active",
          "display": "Active"
        } ]
      },
      "verificationStatus": {
        "coding": [ {
          "system": "http://terminology.hl7.org/CodeSystem/condition-ver-status",
          "code": "refuted",
          "display": "Refuted"
        }, {
          "system": "http://snomed.info/sct",
          "code": "410594000",
          "display": "Definitely NOT present (qualifier value)"
        } ]
      },
      "category": [ {
        "coding": [ {
          "system": "http://loinc.org",
          "code": "75325-1"
        } ]
      } ],
      "code": {
        "coding": [ {
          "system": "http://snomed.info/sct",
          "code": "49727002"
        } ]
      },
      "subject": {
        "reference": "Patient/ed453467c56af402bc7ca7b52779dffc1fcbf4564e9c2e0b31171f1f311de03e"
      },
      "encounter": {
        "reference": "Encounter/9bf08d2957667be3cdba164221abe51c063e661403a1802e45d3ec3dd03bdd00"
      },
      "_recordedDate": {
        "extension": [ {
          "url": "http://hl7.org/fhir/StructureDefinition/data-absent-reason",
          "valueCode": "unknown"
        } ]
      }
    },
    "request": {
      "method": "POST",
      "url": "Condition",
      "ifNoneExist": "identifier=https://mein.krankenhaus.de/fhir/NamingSystem/conditionId|a0d37929ece1cad12d6cb8e4a05b247334d53c3428c6719cf5b8c87e9f29358e"
    }
  }, {
    "fullUrl": "Condition/0e778c62c62c409cc122b868bfe87d132658415ba449afbe745fd669c615dc4c",
    "resource": {
      "resourceType": "Condition",
      "meta": {
        "profile": [ "https://www.netzwerk-universitaetsmedizin.de/fhir/StructureDefinition/symptoms-covid-19" ]
      },
      "modifierExtension": [ {
        "url": "https://www.netzwerk-universitaetsmedizin.de/fhir/StructureDefinition/uncertainty-of-presence",
        "valueCodeableConcept": {
          "coding": [ {
            "system": "http://snomed.info/sct",
            "code": "261665006",
            "display": "Unknown (qualifier value)"
          } ],
          "text": "Presence unknown."
        }
      } ],
      "identifier": [ {
        "system": "https://mein.krankenhaus.de/fhir/NamingSystem/conditionId",
        "value": "e079589b124cf53012ea31f1ba536c32fb2b5a93aef9a560a79122c5906d251c"
      } ],
      "clinicalStatus": {
        "coding": [ {
          "system": "http://terminology.hl7.org/CodeSystem/condition-clinical",
          "code": "active",
          "display": "Active"
        } ]
      },
      "category": [ {
        "coding": [ {
          "system": "http://loinc.org",
          "code": "75325-1"
        } ]
      } ],
      "code": {
        "coding": [ {
          "system": "http://snomed.info/sct",
          "code": "267036007"
        } ]
      },
      "subject": {
        "reference": "Patient/ed453467c56af402bc7ca7b52779dffc1fcbf4564e9c2e0b31171f1f311de03e"
      },
      "encounter": {
        "reference": "Encounter/9bf08d2957667be3cdba164221abe51c063e661403a1802e45d3ec3dd03bdd00"
      },
      "_recordedDate": {
        "extension": [ {
          "url": "http://hl7.org/fhir/StructureDefinition/data-absent-reason",
          "valueCode": "unknown"
        } ]
      }
    },
    "request": {
      "method": "POST",
      "url": "Condition",
      "ifNoneExist": "identifier=https://mein.krankenhaus.de/fhir/NamingSystem/conditionId|0e778c62c62c409cc122b868bfe87d132658415ba449afbe745fd669c615dc4c"
    }
  }, {
    "fullUrl": "Condition/d5231c9f132a4495b7607afee6a34e66a814996463769dfa3a481afe4152dd7e",
    "resource": {
      "resourceType": "Condition",
      "meta": {
        "profile": [ "https://www.netzwerk-universitaetsmedizin.de/fhir/StructureDefinition/symptoms-covid-19" ]
      },
      "identifier": [ {
        "system": "https://mein.krankenhaus.de/fhir/NamingSystem/conditionId",
        "value": "a185770c715eeedbea2f6d31ad3c69858237448488b6b316969ebc09414e6d68"
      } ],
      "clinicalStatus": {
        "coding": [ {
          "system": "http://terminology.hl7.org/CodeSystem/condition-clinical",
          "code": "active",
          "display": "Active"
        } ]
      },
      "verificationStatus": {
        "coding": [ {
          "system": "http://terminology.hl7.org/CodeSystem/condition-ver-status",
          "code": "confirmed",
          "display": "Confirmed"
        }, {
          "system": "http://snomed.info/sct",
          "code": "410605003",
          "display": "Confirmed present (qualifier value)"
        } ]
      },
      "category": [ {
        "coding": [ {
          "system": "http://loinc.org",
          "code": "75325-1"
        } ]
      } ],
      "severity": {
        "coding": [ {
          "system": "http://snomed.info/sct",
          "code": "442452003"
        } ]
      },
      "code": {
        "coding": [ {
          "system": "http://snomed.info/sct",
          "code": "422587007"
        } ]
      },
      "subject": {
        "reference": "Patient/ed453467c56af402bc7ca7b52779dffc1fcbf4564e9c2e0b31171f1f311de03e"
      },
      "encounter": {
        "reference": "Encounter/9bf08d2957667be3cdba164221abe51c063e661403a1802e45d3ec3dd03bdd00"
      },
      "_recordedDate": {
        "extension": [ {
          "url": "http://hl7.org/fhir/StructureDefinition/data-absent-reason",
          "valueCode": "unknown"
        } ]
      }
    },
    "request": {
      "method": "POST",
      "url": "Condition",
      "ifNoneExist": "identifier=https://mein.krankenhaus.de/fhir/NamingSystem/conditionId|d5231c9f132a4495b7607afee6a34e66a814996463769dfa3a481afe4152dd7e"
    }
  }, {
    "fullUrl": "Procedure/77cf8bce74e5995aec96b7f433609cff00ed671a79b8cb3c0443c5fa19978022",
    "resource": {
      "resourceType": "Procedure",
      "meta": {
        "profile": [ "https://www.netzwerk-universitaetsmedizin.de/fhir/StructureDefinition/dialysis" ]
      },
      "identifier": [ {
        "system": "https://mein.krankenhaus.de/fhir/NamingSystem/procedureId",
        "value": "8b41b9288fdbce8067ae94564fc78dec576eaaa06621891588aeda1e6671561e"
      } ],
      "status": "in-progress",
      "category": {
        "coding": [ {
          "system": "http://snomed.info/sct",
          "code": "277132007",
          "display": "Therapeutic procedure (procedure)"
        } ]
      },
      "code": {
        "coding": [ {
          "system": "http://snomed.info/sct",
          "code": "108241001"
        } ],
        "text": "Dialysis"
      },
      "subject": {
        "reference": "Patient/ed453467c56af402bc7ca7b52779dffc1fcbf4564e9c2e0b31171f1f311de03e"
      },
      "encounter": {
        "reference": "Encounter/9bf08d2957667be3cdba164221abe51c063e661403a1802e45d3ec3dd03bdd00"
      },
      "_performedDateTime": {
        "extension": [ {
          "url": "http://hl7.org/fhir/StructureDefinition/data-absent-reason",
          "valueCode": "unknown"
        } ]
      }
    },
    "request": {
      "method": "POST",
      "url": "Procedure",
      "ifNoneExist": "identifier=https://mein.krankenhaus.de/fhir/NamingSystem/procedureId|77cf8bce74e5995aec96b7f433609cff00ed671a79b8cb3c0443c5fa19978022"
    }
  }, {
    "fullUrl": "Procedure/37f5c080dbee7f873d187b5347ffb7953643d30fef80453db200a785efa8877b",
    "resource": {
      "resourceType": "Procedure",
      "meta": {
        "profile": [ "https://www.netzwerk-universitaetsmedizin.de/fhir/StructureDefinition/apheresis" ]
      },
      "identifier": [ {
        "system": "https://mein.krankenhaus.de/fhir/NamingSystem/procedureId",
        "value": "ee59b6804fed620386b41ca4f59f52d19fc1135184f721d94c1ecaaaaa7e4b21"
      } ],
      "status": "in-progress",
      "category": {
        "coding": [ {
          "system": "http://snomed.info/sct",
          "code": "277132007",
          "display": "Therapeutic procedure (procedure)"
        } ]
      },
      "code": {
        "coding": [ {
          "system": "http://snomed.info/sct",
          "code": "127788007"
        } ],
        "text": "Apheresis"
      },
      "subject": {
        "reference": "Patient/ed453467c56af402bc7ca7b52779dffc1fcbf4564e9c2e0b31171f1f311de03e"
      },
      "encounter": {
        "reference": "Encounter/9bf08d2957667be3cdba164221abe51c063e661403a1802e45d3ec3dd03bdd00"
      },
      "_performedDateTime": {
        "extension": [ {
          "url": "http://hl7.org/fhir/StructureDefinition/data-absent-reason",
          "valueCode": "unknown"
        } ]
      }
    },
    "request": {
      "method": "POST",
      "url": "Procedure",
      "ifNoneExist": "identifier=https://mein.krankenhaus.de/fhir/NamingSystem/procedureId|37f5c080dbee7f873d187b5347ffb7953643d30fef80453db200a785efa8877b"
    }
  }, {
    "fullUrl": "Procedure/3ba3d68cdcd229f3181b9199d0b7ae9704fef039ea92602650087bdf9e4f437a",
    "resource": {
      "resourceType": "Procedure",
      "meta": {
        "profile": [ "https://www.netzwerk-universitaetsmedizin.de/fhir/StructureDefinition/prone-position" ]
      },
      "identifier": [ {
        "system": "https://mein.krankenhaus.de/fhir/NamingSystem/procedureId",
        "value": "45a568d3e5917e22db9a8dce91192a735eac6e521a94688fcf3841a16108b002"
      } ],
      "status": "unknown",
      "category": {
        "coding": [ {
          "system": "http://snomed.info/sct",
          "code": "225287004",
          "display": "Procedures relating to positioning and support (procedure)"
        } ]
      },
      "code": {
        "coding": [ {
          "system": "http://snomed.info/sct",
          "code": "431182000"
        } ],
        "text": "Prone position"
      },
      "subject": {
        "reference": "Patient/ed453467c56af402bc7ca7b52779dffc1fcbf4564e9c2e0b31171f1f311de03e"
      },
      "encounter": {
        "reference": "Encounter/9bf08d2957667be3cdba164221abe51c063e661403a1802e45d3ec3dd03bdd00"
      },
      "_performedDateTime": {
        "extension": [ {
          "url": "http://hl7.org/fhir/StructureDefinition/data-absent-reason",
          "valueCode": "unknown"
        } ]
      }
    },
    "request": {
      "method": "POST",
      "url": "Procedure",
      "ifNoneExist": "identifier=https://mein.krankenhaus.de/fhir/NamingSystem/procedureId|3ba3d68cdcd229f3181b9199d0b7ae9704fef039ea92602650087bdf9e4f437a"
    }
  }, {
    "fullUrl": "Procedure/e65171909651b52b59fa954767b6328dd28285a48cda6394b1a18e4a0ae96292",
    "resource": {
      "resourceType": "Procedure",
      "meta": {
        "profile": [ "https://www.netzwerk-universitaetsmedizin.de/fhir/StructureDefinition/respiratory-therapies" ]
      },
      "identifier": [ {
        "system": "https://mein.krankenhaus.de/fhir/NamingSystem/procedureId",
        "value": "a24c78c76d0851c6fecc11039ea4daf3aa2299fba747f5d571714449050171ed"
      } ],
      "status": "in-progress",
      "category": {
        "coding": [ {
          "system": "http://snomed.info/sct",
          "code": "277132007",
          "display": "Therapeutic procedure (procedure)"
        } ]
      },
      "code": {
        "coding": [ {
          "system": "http://snomed.info/sct",
          "code": "428311008"
        } ]
      },
      "subject": {
        "reference": "Patient/ed453467c56af402bc7ca7b52779dffc1fcbf4564e9c2e0b31171f1f311de03e"
      },
      "encounter": {
        "reference": "Encounter/9bf08d2957667be3cdba164221abe51c063e661403a1802e45d3ec3dd03bdd00"
      },
      "_performedDateTime": {
        "extension": [ {
          "url": "http://hl7.org/fhir/StructureDefinition/data-absent-reason",
          "valueCode": "unknown"
        } ]
      }
    },
    "request": {
      "method": "POST",
      "url": "Procedure",
      "ifNoneExist": "identifier=https://mein.krankenhaus.de/fhir/NamingSystem/procedureId|e65171909651b52b59fa954767b6328dd28285a48cda6394b1a18e4a0ae96292"
    }
  }, {
    "fullUrl": "Condition/c1ee298702ac55a50ccd4b9cbe6082ea27f8217084d1f629e5c2bacdc84ea112",
    "resource": {
      "resourceType": "Condition",
      "meta": {
        "profile": [ "https://www.netzwerk-universitaetsmedizin.de/fhir/StructureDefinition/dependence-on-ventilator" ]
      },
      "identifier": [ {
        "system": "https://mein.krankenhaus.de/fhir/NamingSystem/conditionId",
        "value": "c708562bc87aae3413a8ce6e9f8544d598cc2f622c48e078c4e8f6bd16b1ff13"
      } ],
      "clinicalStatus": {
        "coding": [ {
          "system": "http://terminology.hl7.org/CodeSystem/condition-clinical",
          "code": "active",
          "display": "Active"
        } ]
      },
      "verificationStatus": {
        "coding": [ {
          "system": "http://terminology.hl7.org/CodeSystem/condition-ver-status",
          "code": "refuted",
          "display": "Refuted"
        }, {
          "system": "http://snomed.info/sct",
          "code": "410594000",
          "display": "Definitely NOT present (qualifier value)"
        } ]
      },
      "category": [ {
        "coding": [ {
          "system": "http://snomed.info/sct",
          "code": "404989005",
          "display": "Ventilation status (observable entity)"
        } ]
      } ],
      "code": {
        "coding": [ {
          "system": "http://snomed.info/sct",
          "code": "444932008"
        } ]
      },
      "subject": {
        "reference": "Patient/ed453467c56af402bc7ca7b52779dffc1fcbf4564e9c2e0b31171f1f311de03e"
      },
      "encounter": {
        "reference": "Encounter/9bf08d2957667be3cdba164221abe51c063e661403a1802e45d3ec3dd03bdd00"
      },
      "_recordedDate": {
        "extension": [ {
          "url": "http://hl7.org/fhir/StructureDefinition/data-absent-reason",
          "valueCode": "unknown"
        } ]
      }
    },
    "request": {
      "method": "POST",
      "url": "Condition",
      "ifNoneExist": "identifier=https://mein.krankenhaus.de/fhir/NamingSystem/conditionId|c1ee298702ac55a50ccd4b9cbe6082ea27f8217084d1f629e5c2bacdc84ea112"
    }
  }, {
    "fullUrl": "Observation/a5eebeb345ef317587071618a89603f040dbe06f121840447d5336463dee1863",
    "resource": {
      "resourceType": "Observation",
      "meta": {
        "profile": [ "https://www.netzwerk-universitaetsmedizin.de/fhir/StructureDefinition/discharge-disposition" ]
      },
      "identifier": [ {
        "type": {
          "coding": [ {
            "system": "http://terminology.hl7.org/CodeSystem/v2-0203",
            "code": "OBI",
            "display": "Observation Instance Identifier"
          } ]
        },
        "system": "https://mein.krankenhaus.de/fhir/NamingSystem/observationId",
        "value": "d0e591a81affa36a6b92ab00ffce83ec5ccf3ae8bbbaa0118a79989dd5a7da29",
        "assigner": {
          "reference": "Organization/3a4f3433bce81181bad2d8e0b8fafccf7dc800bc06f29be73dcb38b750a48f9a"
        }
      } ],
      "status": "final",
      "category": [ {
        "coding": [ {
          "system": "http://terminology.hl7.org/CodeSystem/observation-category",
          "code": "social-history",
          "display": "Social History"
        } ]
      } ],
      "code": {
        "coding": [ {
          "system": "http://loinc.org",
          "code": "55128-3"
        } ],
        "text": "type of Discharge"
      },
      "subject": {
        "reference": "Patient/ed453467c56af402bc7ca7b52779dffc1fcbf4564e9c2e0b31171f1f311de03e"
      },
      "encounter": {
        "reference": "Encounter/9bf08d2957667be3cdba164221abe51c063e661403a1802e45d3ec3dd03bdd00"
      },
      "_effectiveDateTime": {
        "extension": [ {
          "url": "http://hl7.org/fhir/StructureDefinition/data-absent-reason",
          "valueCode": "unknown"
        } ]
      },
      "valueCodeableConcept": {
        "coding": [ {
          "system": "http://snomed.info/sct",
          "code": "261665006"
        } ]
      }
    },
    "request": {
      "method": "POST",
      "url": "Observation",
      "ifNoneExist": "identifier=https://mein.krankenhaus.de/fhir/NamingSystem/observationId|a5eebeb345ef317587071618a89603f040dbe06f121840447d5336463dee1863"
    }
  }, {
    "fullUrl": "Observation/da208717fe65a7d1f457eff94bcf3dc04f33266334b84171b226e7e2f7386a7f",
    "resource": {
      "resourceType": "Observation",
      "meta": {
        "profile": [ "https://www.netzwerk-universitaetsmedizin.de/fhir/StructureDefinition/sars-cov-2-rt-pcr" ]
      },
      "identifier": [ {
        "type": {
          "coding": [ {
            "system": "http://terminology.hl7.org/CodeSystem/v2-0203",
            "code": "OBI",
            "display": "Observation Instance Identifier"
          } ]
        },
        "system": "https://mein.krankenhaus.de/fhir/NamingSystem/observationId",
        "value": "d25f20c777705e79b2a79c4a895c4f3130d2ad48469024b186612fe61a75d10d",
        "assigner": {
          "reference": "Organization/3a4f3433bce81181bad2d8e0b8fafccf7dc800bc06f29be73dcb38b750a48f9a"
        }
      } ],
      "status": "final",
      "category": [ {
        "coding": [ {
          "system": "http://terminology.hl7.org/CodeSystem/observation-category",
          "code": "laboratory",
          "display": "Laboratory"
        }, {
          "system": "http://loinc.org",
          "code": "26436-6",
          "display": "Laboratory studies (set)"
        } ]
      } ],
      "code": {
        "coding": [ {
          "system": "http://loinc.org",
          "code": "94500-6"
        } ]
      },
      "subject": {
        "reference": "Patient/ed453467c56af402bc7ca7b52779dffc1fcbf4564e9c2e0b31171f1f311de03e"
      },
      "encounter": {
        "reference": "Encounter/9bf08d2957667be3cdba164221abe51c063e661403a1802e45d3ec3dd03bdd00"
      },
      "_effectiveDateTime": {
        "extension": [ {
          "url": "http://hl7.org/fhir/StructureDefinition/data-absent-reason",
          "valueCode": "unknown"
        } ]
      },
      "valueCodeableConcept": {
        "coding": [ {
          "system": "http://snomed.info/sct",
          "code": "260373001"
        } ]
      }
    },
    "request": {
      "method": "POST",
      "url": "Observation",
      "ifNoneExist": "identifier=https://mein.krankenhaus.de/fhir/NamingSystem/observationId|da208717fe65a7d1f457eff94bcf3dc04f33266334b84171b226e7e2f7386a7f"
    }
  }, {
    "fullUrl": "Observation/1fbbe1e63b24f974434cdfe2f867ac745904f760e3b13ebd582dcae34726aa4d",
    "resource": {
      "resourceType": "Observation",
      "meta": {
        "profile": [ "https://www.medizininformatik-initiative.de/fhir/core/modul-labor/StructureDefinition/ObservationLab" ]
      },
      "identifier": [ {
        "type": {
          "coding": [ {
            "system": "http://terminology.hl7.org/CodeSystem/v2-0203",
            "code": "OBI",
            "display": "Observation Instance Identifier"
          } ]
        },
        "system": "https://mein.krankenhaus.de/fhir/NamingSystem/observationId",
        "value": "2fb86b762e27556370563e9106ac2c978b796f968fee81ce7137fcd0e4a990b0",
        "assigner": {
          "reference": "Organization/3a4f3433bce81181bad2d8e0b8fafccf7dc800bc06f29be73dcb38b750a48f9a"
        }
      } ],
      "status": "final",
      "category": [ {
        "coding": [ {
          "system": "http://terminology.hl7.org/CodeSystem/observation-category",
          "code": "laboratory",
          "display": "Laboratory"
        }, {
          "system": "http://loinc.org",
          "code": "26436-6"
        } ]
      } ],
      "code": {
        "coding": [ {
          "system": "http://loinc.org",
          "code": "76486-0",
          "display": "c-reactive-protein-in-serum-or-plasma-by-high-sensitivity-method"
        } ],
        "text": "crp"
      },
      "subject": {
        "reference": "Patient/ed453467c56af402bc7ca7b52779dffc1fcbf4564e9c2e0b31171f1f311de03e"
      },
      "encounter": {
        "reference": "Encounter/9bf08d2957667be3cdba164221abe51c063e661403a1802e45d3ec3dd03bdd00"
      },
      "effectiveDateTime": "2020-11-28T20:30:00+00:00",
      "valueQuantity": {
        "value": 96.66856864673431,
        "unit": "nmol/L",
        "system": "http://unitsofmeasure.org",
        "code": "nmol/L"
      }
    },
    "request": {
      "method": "POST",
      "url": "Observation",
      "ifNoneExist": "identifier=https://mein.krankenhaus.de/fhir/NamingSystem/observationId|1fbbe1e63b24f974434cdfe2f867ac745904f760e3b13ebd582dcae34726aa4d"
    }
  }, {
    "fullUrl": "Observation/3a19b264d621d813d6962d39b2acee3dff469d327f5d1d6d6a235d96768aa28c",
    "resource": {
      "resourceType": "Observation",
      "meta": {
        "profile": [ "https://www.medizininformatik-initiative.de/fhir/core/modul-labor/StructureDefinition/ObservationLab" ]
      },
      "identifier": [ {
        "type": {
          "coding": [ {
            "system": "http://terminology.hl7.org/CodeSystem/v2-0203",
            "code": "OBI",
            "display": "Observation Instance Identifier"
          } ]
        },
        "system": "https://mein.krankenhaus.de/fhir/NamingSystem/observationId",
        "value": "db5da7f13754416065bfc5fc6ed6b926a8045e28de8e0e6cb50a3a85285d95b6",
        "assigner": {
          "reference": "Organization/3a4f3433bce81181bad2d8e0b8fafccf7dc800bc06f29be73dcb38b750a48f9a"
        }
      } ],
      "status": "final",
      "category": [ {
        "coding": [ {
          "system": "http://terminology.hl7.org/CodeSystem/observation-category",
          "code": "laboratory",
          "display": "Laboratory"
        }, {
          "system": "http://loinc.org",
          "code": "26436-6"
        } ]
      } ],
      "code": {
        "coding": [ {
          "system": "http://loinc.org",
          "code": "14723-1",
          "display": "ferritin-in-serum-or-plasma"
        } ],
        "text": "ferritin"
      },
      "subject": {
        "reference": "Patient/ed453467c56af402bc7ca7b52779dffc1fcbf4564e9c2e0b31171f1f311de03e"
      },
      "encounter": {
        "reference": "Encounter/9bf08d2957667be3cdba164221abe51c063e661403a1802e45d3ec3dd03bdd00"
      },
      "effectiveDateTime": "2020-11-28T20:30:00+00:00",
      "valueQuantity": {
        "value": 27.620547084313408,
        "unit": "pmol/L",
        "system": "http://unitsofmeasure.org",
        "code": "pmol/L"
      }
    },
    "request": {
      "method": "POST",
      "url": "Observation",
      "ifNoneExist": "identifier=https://mein.krankenhaus.de/fhir/NamingSystem/observationId|3a19b264d621d813d6962d39b2acee3dff469d327f5d1d6d6a235d96768aa28c"
    }
  }, {
    "fullUrl": "Observation/f67c23fe51b6f0f5ba9c6cd7ec96ac2de6043f80016e9c3732cbd802c9ed33cc",
    "resource": {
      "resourceType": "Observation",
      "meta": {
        "profile": [ "https://www.medizininformatik-initiative.de/fhir/core/modul-labor/StructureDefinition/ObservationLab" ]
      },
      "identifier": [ {
        "type": {
          "coding": [ {
            "system": "http://terminology.hl7.org/CodeSystem/v2-0203",
            "code": "OBI",
            "display": "Observation Instance Identifier"
          } ]
        },
        "system": "https://mein.krankenhaus.de/fhir/NamingSystem/observationId",
        "value": "d32b3e0b2944097c9e608cc5ccfb02ac8c0fe718783843b1dc56cedd4ec5d750",
        "assigner": {
          "reference": "Organization/3a4f3433bce81181bad2d8e0b8fafccf7dc800bc06f29be73dcb38b750a48f9a"
        }
      } ],
      "status": "final",
      "category": [ {
        "coding": [ {
          "system": "http://terminology.hl7.org/CodeSystem/observation-category",
          "code": "laboratory",
          "display": "Laboratory"
        }, {
          "system": "http://loinc.org",
          "code": "26436-6"
        } ]
      } ],
      "code": {
        "coding": [ {
          "system": "http://loinc.org",
          "code": "38898-3",
          "display": "fibrin-d-dimer-in-platelet-poor-plasma"
        } ],
        "text": "ddimer"
      },
      "subject": {
        "reference": "Patient/ed453467c56af402bc7ca7b52779dffc1fcbf4564e9c2e0b31171f1f311de03e"
      },
      "encounter": {
        "reference": "Encounter/9bf08d2957667be3cdba164221abe51c063e661403a1802e45d3ec3dd03bdd00"
      },
      "effectiveDateTime": "2020-11-28T20:30:00+00:00",
      "valueQuantity": {
        "value": 76.90035154013873,
        "unit": "{titer}",
        "system": "http://unitsofmeasure.org",
        "code": "{titer}"
      }
    },
    "request": {
      "method": "POST",
      "url": "Observation",
      "ifNoneExist": "identifier=https://mein.krankenhaus.de/fhir/NamingSystem/observationId|f67c23fe51b6f0f5ba9c6cd7ec96ac2de6043f80016e9c3732cbd802c9ed33cc"
    }
  }, {
    "fullUrl": "Observation/621cddb5ce91444f84554be34b114e5b76fdfdef0f84de990ab8e986a12bacee",
    "resource": {
      "resourceType": "Observation",
      "meta": {
        "profile": [ "https://www.medizininformatik-initiative.de/fhir/core/modul-labor/StructureDefinition/ObservationLab" ]
      },
      "identifier": [ {
        "type": {
          "coding": [ {
            "system": "http://terminology.hl7.org/CodeSystem/v2-0203",
            "code": "OBI",
            "display": "Observation Instance Identifier"
          } ]
        },
        "system": "https://mein.krankenhaus.de/fhir/NamingSystem/observationId",
        "value": "307eeff7bf148ee77728f4dff516fd73b050d1be1529f8a2f9102389463dccd8",
        "assigner": {
          "reference": "Organization/3a4f3433bce81181bad2d8e0b8fafccf7dc800bc06f29be73dcb38b750a48f9a"
        }
      } ],
      "status": "final",
      "category": [ {
        "coding": [ {
          "system": "http://terminology.hl7.org/CodeSystem/observation-category",
          "code": "laboratory",
          "display": "Laboratory"
        }, {
          "system": "http://loinc.org",
          "code": "26436-6"
        } ]
      } ],
      "code": {
        "coding": [ {
          "system": "http://loinc.org",
          "code": "2324-2",
          "display": "gamma-glutamyl-transferase-in-serum-or-plasma"
        } ],
        "text": "gammagt"
      },
      "subject": {
        "reference": "Patient/ed453467c56af402bc7ca7b52779dffc1fcbf4564e9c2e0b31171f1f311de03e"
      },
      "encounter": {
        "reference": "Encounter/9bf08d2957667be3cdba164221abe51c063e661403a1802e45d3ec3dd03bdd00"
      },
      "effectiveDateTime": "2020-11-28T20:30:00+00:00",
      "valueQuantity": {
        "value": 36.44899582488984,
        "unit": "U/L",
        "system": "http://unitsofmeasure.org",
        "code": "U/L"
      }
    },
    "request": {
      "method": "POST",
      "url": "Observation",
      "ifNoneExist": "identifier=https://mein.krankenhaus.de/fhir/NamingSystem/observationId|621cddb5ce91444f84554be34b114e5b76fdfdef0f84de990ab8e986a12bacee"
    }
  }, {
    "fullUrl": "Observation/d9e1faeb45b8271ad1cab1f0e89c4418fe6d3ef3ae46158496afbae029907c3b",
    "resource": {
      "resourceType": "Observation",
      "meta": {
        "profile": [ "https://www.medizininformatik-initiative.de/fhir/core/modul-labor/StructureDefinition/ObservationLab" ]
      },
      "identifier": [ {
        "type": {
          "coding": [ {
            "system": "http://terminology.hl7.org/CodeSystem/v2-0203",
            "code": "OBI",
            "display": "Observation Instance Identifier"
          } ]
        },
        "system": "https://mein.krankenhaus.de/fhir/NamingSystem/observationId",
        "value": "4f244369977a3bdb0cbb69761c20699113a6fbc0bab35ba8018a864209f2de26",
        "assigner": {
          "reference": "Organization/3a4f3433bce81181bad2d8e0b8fafccf7dc800bc06f29be73dcb38b750a48f9a"
        }
      } ],
      "status": "final",
      "category": [ {
        "coding": [ {
          "system": "http://terminology.hl7.org/CodeSystem/observation-category",
          "code": "laboratory",
          "display": "Laboratory"
        }, {
          "system": "http://loinc.org",
          "code": "26436-6"
        } ]
      } ],
      "code": {
        "coding": [ {
          "system": "http://loinc.org",
          "code": "1920-8",
          "display": "aspartate-aminotransferase-in-serum-or-plasma"
        } ],
        "text": "gotast"
      },
      "subject": {
        "reference": "Patient/ed453467c56af402bc7ca7b52779dffc1fcbf4564e9c2e0b31171f1f311de03e"
      },
      "encounter": {
        "reference": "Encounter/9bf08d2957667be3cdba164221abe51c063e661403a1802e45d3ec3dd03bdd00"
      },
      "effectiveDateTime": "2020-11-28T20:30:00+00:00",
      "valueQuantity": {
        "value": 33.809155587194404,
        "unit": "U/L",
        "system": "http://unitsofmeasure.org",
        "code": "U/L"
      }
    },
    "request": {
      "method": "POST",
      "url": "Observation",
      "ifNoneExist": "identifier=https://mein.krankenhaus.de/fhir/NamingSystem/observationId|d9e1faeb45b8271ad1cab1f0e89c4418fe6d3ef3ae46158496afbae029907c3b"
    }
  }, {
    "fullUrl": "Observation/fe6bc848eb573b79b93f83aedcf2cee5eec10329aa3ee988e014f3b29cdb9d42",
    "resource": {
      "resourceType": "Observation",
      "meta": {
        "profile": [ "https://www.medizininformatik-initiative.de/fhir/core/modul-labor/StructureDefinition/ObservationLab" ]
      },
      "identifier": [ {
        "type": {
          "coding": [ {
            "system": "http://terminology.hl7.org/CodeSystem/v2-0203",
            "code": "OBI",
            "display": "Observation Instance Identifier"
          } ]
        },
        "system": "https://mein.krankenhaus.de/fhir/NamingSystem/observationId",
        "value": "146d926df673555f544abd0f44f102bccae10a489a04f7788aaaa1fd4b33d0d9",
        "assigner": {
          "reference": "Organization/3a4f3433bce81181bad2d8e0b8fafccf7dc800bc06f29be73dcb38b750a48f9a"
        }
      } ],
      "status": "final",
      "category": [ {
        "coding": [ {
          "system": "http://terminology.hl7.org/CodeSystem/observation-category",
          "code": "laboratory",
          "display": "Laboratory"
        }, {
          "system": "http://loinc.org",
          "code": "26436-6"
        } ]
      } ],
      "code": {
        "coding": [ {
          "system": "http://loinc.org",
          "code": "6598-7",
          "display": "troponin-t.cardiac-in-serum-or-plasma"
        } ],
        "text": "kardiale_troponine"
      },
      "subject": {
        "reference": "Patient/ed453467c56af402bc7ca7b52779dffc1fcbf4564e9c2e0b31171f1f311de03e"
      },
      "encounter": {
        "reference": "Encounter/9bf08d2957667be3cdba164221abe51c063e661403a1802e45d3ec3dd03bdd00"
      },
      "effectiveDateTime": "2020-11-28T20:30:00+00:00",
      "valueQuantity": {
        "value": 24.571715112036998,
        "unit": "ng/mL",
        "system": "http://unitsofmeasure.org",
        "code": "ng/mL"
      }
    },
    "request": {
      "method": "POST",
      "url": "Observation",
      "ifNoneExist": "identifier=https://mein.krankenhaus.de/fhir/NamingSystem/observationId|fe6bc848eb573b79b93f83aedcf2cee5eec10329aa3ee988e014f3b29cdb9d42"
    }
  }, {
    "fullUrl": "Observation/8c8dd274b156cc47a526af5dfc54900a893419c6fa8396d56d9690309238900f",
    "resource": {
      "resourceType": "Observation",
      "meta": {
        "profile": [ "https://www.medizininformatik-initiative.de/fhir/core/modul-labor/StructureDefinition/ObservationLab" ]
      },
      "identifier": [ {
        "type": {
          "coding": [ {
            "system": "http://terminology.hl7.org/CodeSystem/v2-0203",
            "code": "OBI",
            "display": "Observation Instance Identifier"
          } ]
        },
        "system": "https://mein.krankenhaus.de/fhir/NamingSystem/observationId",
        "value": "eb9b626dacf2b69f21ec41521194492f5edf6a7ee9c4536ef3e26b15977a84a0",
        "assigner": {
          "reference": "Organization/3a4f3433bce81181bad2d8e0b8fafccf7dc800bc06f29be73dcb38b750a48f9a"
        }
      } ],
      "status": "final",
      "category": [ {
        "coding": [ {
          "system": "http://terminology.hl7.org/CodeSystem/observation-category",
          "code": "laboratory",
          "display": "Laboratory"
        }, {
          "system": "http://loinc.org",
          "code": "26436-6"
        } ]
      } ],
      "code": {
        "coding": [ {
          "system": "http://loinc.org",
          "code": "20509-6",
          "display": "hemoglobin-in-blood-by-calculation"
        } ],
        "text": "hamoglobin"
      },
      "subject": {
        "reference": "Patient/ed453467c56af402bc7ca7b52779dffc1fcbf4564e9c2e0b31171f1f311de03e"
      },
      "encounter": {
        "reference": "Encounter/9bf08d2957667be3cdba164221abe51c063e661403a1802e45d3ec3dd03bdd00"
      },
      "effectiveDateTime": "2020-11-28T20:30:00+00:00",
      "valueQuantity": {
        "value": 89.89715691019512,
        "unit": "g/L",
        "system": "http://unitsofmeasure.org",
        "code": "g/L"
      }
    },
    "request": {
      "method": "POST",
      "url": "Observation",
      "ifNoneExist": "identifier=https://mein.krankenhaus.de/fhir/NamingSystem/observationId|8c8dd274b156cc47a526af5dfc54900a893419c6fa8396d56d9690309238900f"
    }
  }, {
    "fullUrl": "Observation/14755b00930b38ec25a8c88d51dd36992351470cb5b4a426c5154e38cfc953c5",
    "resource": {
      "resourceType": "Observation",
      "meta": {
        "profile": [ "https://www.medizininformatik-initiative.de/fhir/core/modul-labor/StructureDefinition/ObservationLab" ]
      },
      "identifier": [ {
        "type": {
          "coding": [ {
            "system": "http://terminology.hl7.org/CodeSystem/v2-0203",
            "code": "OBI",
            "display": "Observation Instance Identifier"
          } ]
        },
        "system": "https://mein.krankenhaus.de/fhir/NamingSystem/observationId",
        "value": "80da1b805f6c145660aea3a33d58bb9a6a1dfdcb0f7e2dac85806c313a336493",
        "assigner": {
          "reference": "Organization/3a4f3433bce81181bad2d8e0b8fafccf7dc800bc06f29be73dcb38b750a48f9a"
        }
      } ],
      "status": "final",
      "category": [ {
        "coding": [ {
          "system": "http://terminology.hl7.org/CodeSystem/observation-category",
          "code": "laboratory",
          "display": "Laboratory"
        }, {
          "system": "http://loinc.org",
          "code": "26436-6"
        } ]
      } ],
      "code": {
        "coding": [ {
          "system": "http://loinc.org",
          "code": "21232-4",
          "display": "creatinine-in-arterial-blood"
        } ],
        "text": "kreatinin"
      },
      "subject": {
        "reference": "Patient/ed453467c56af402bc7ca7b52779dffc1fcbf4564e9c2e0b31171f1f311de03e"
      },
      "encounter": {
        "reference": "Encounter/9bf08d2957667be3cdba164221abe51c063e661403a1802e45d3ec3dd03bdd00"
      },
      "effectiveDateTime": "2020-11-28T20:30:00+00:00",
      "valueQuantity": {
        "value": 9.687752588906529,
        "unit": "mg/L",
        "system": "http://unitsofmeasure.org",
        "code": "mg/L"
      }
    },
    "request": {
      "method": "POST",
      "url": "Observation",
      "ifNoneExist": "identifier=https://mein.krankenhaus.de/fhir/NamingSystem/observationId|14755b00930b38ec25a8c88d51dd36992351470cb5b4a426c5154e38cfc953c5"
    }
  }, {
    "fullUrl": "Observation/267ef220115a3bf03c53d5e676a4dfe61c3c39babd029b008d41974bdc1ed5c5",
    "resource": {
      "resourceType": "Observation",
      "meta": {
        "profile": [ "https://www.medizininformatik-initiative.de/fhir/core/modul-labor/StructureDefinition/ObservationLab" ]
      },
      "identifier": [ {
        "type": {
          "coding": [ {
            "system": "http://terminology.hl7.org/CodeSystem/v2-0203",
            "code": "OBI",
            "display": "Observation Instance Identifier"
          } ]
        },
        "system": "https://mein.krankenhaus.de/fhir/NamingSystem/observationId",
        "value": "3a4c63b7fd16a7e04edc3e3f8a44c79a761710ea183944921dae04dd5fda1afd",
        "assigner": {
          "reference": "Organization/3a4f3433bce81181bad2d8e0b8fafccf7dc800bc06f29be73dcb38b750a48f9a"
        }
      } ],
      "status": "final",
      "category": [ {
        "coding": [ {
          "system": "http://terminology.hl7.org/CodeSystem/observation-category",
          "code": "laboratory",
          "display": "Laboratory"
        }, {
          "system": "http://loinc.org",
          "code": "26436-6"
        } ]
      } ],
      "code": {
        "coding": [ {
          "system": "http://loinc.org",
          "code": "2518-9",
          "display": "lactate-in-arterial-blood"
        } ],
        "text": "laktat"
      },
      "subject": {
        "reference": "Patient/ed453467c56af402bc7ca7b52779dffc1fcbf4564e9c2e0b31171f1f311de03e"
      },
      "encounter": {
        "reference": "Encounter/9bf08d2957667be3cdba164221abe51c063e661403a1802e45d3ec3dd03bdd00"
      },
      "effectiveDateTime": "2020-11-28T20:30:00+00:00",
      "valueQuantity": {
        "value": 4.70803857191796,
        "unit": "mmol/L",
        "system": "http://unitsofmeasure.org",
        "code": "mmol/L"
      }
    },
    "request": {
      "method": "POST",
      "url": "Observation",
      "ifNoneExist": "identifier=https://mein.krankenhaus.de/fhir/NamingSystem/observationId|267ef220115a3bf03c53d5e676a4dfe61c3c39babd029b008d41974bdc1ed5c5"
    }
  }, {
    "fullUrl": "Observation/71d8bac78a82acd61b1c6b0ee5210afe571f830a74c20dd043f88f4102bcccb0",
    "resource": {
      "resourceType": "Observation",
      "meta": {
        "profile": [ "https://www.medizininformatik-initiative.de/fhir/core/modul-labor/StructureDefinition/ObservationLab" ]
      },
      "identifier": [ {
        "type": {
          "coding": [ {
            "system": "http://terminology.hl7.org/CodeSystem/v2-0203",
            "code": "OBI",
            "display": "Observation Instance Identifier"
          } ]
        },
        "system": "https://mein.krankenhaus.de/fhir/NamingSystem/observationId",
        "value": "506f1292584f0fdf404566ac44079039c02876f9a7434d6b5735c742a633bf45",
        "assigner": {
          "reference": "Organization/3a4f3433bce81181bad2d8e0b8fafccf7dc800bc06f29be73dcb38b750a48f9a"
        }
      } ],
      "status": "final",
      "category": [ {
        "coding": [ {
          "system": "http://terminology.hl7.org/CodeSystem/observation-category",
          "code": "laboratory",
          "display": "Laboratory"
        }, {
          "system": "http://loinc.org",
          "code": "26436-6"
        } ]
      } ],
      "code": {
        "coding": [ {
          "system": "http://loinc.org",
          "code": "6690-2",
          "display": "leukocytes-in-blood-by-automated-count"
        } ],
        "text": "leukozyten_absolut"
      },
      "subject": {
        "reference": "Patient/ed453467c56af402bc7ca7b52779dffc1fcbf4564e9c2e0b31171f1f311de03e"
      },
      "encounter": {
        "reference": "Encounter/9bf08d2957667be3cdba164221abe51c063e661403a1802e45d3ec3dd03bdd00"
      },
      "effectiveDateTime": "2020-11-28T20:30:00+00:00",
      "valueQuantity": {
        "value": 0.5006430958898522,
        "unit": "10*3/uL",
        "system": "http://unitsofmeasure.org",
        "code": "10*3/uL"
      }
    },
    "request": {
      "method": "POST",
      "url": "Observation",
      "ifNoneExist": "identifier=https://mein.krankenhaus.de/fhir/NamingSystem/observationId|71d8bac78a82acd61b1c6b0ee5210afe571f830a74c20dd043f88f4102bcccb0"
    }
  }, {
    "fullUrl": "Observation/79d4016d45a019b798c3e062c374b56a3cd5de1247de3bc878ea507dc59d996c",
    "resource": {
      "resourceType": "Observation",
      "meta": {
        "profile": [ "https://www.medizininformatik-initiative.de/fhir/core/modul-labor/StructureDefinition/ObservationLab" ]
      },
      "identifier": [ {
        "type": {
          "coding": [ {
            "system": "http://terminology.hl7.org/CodeSystem/v2-0203",
            "code": "OBI",
            "display": "Observation Instance Identifier"
          } ]
        },
        "system": "https://mein.krankenhaus.de/fhir/NamingSystem/observationId",
        "value": "48e5a06f159a47d992325135462e4badc9a464c4e4e9ada33b202389a457e5df",
        "assigner": {
          "reference": "Organization/3a4f3433bce81181bad2d8e0b8fafccf7dc800bc06f29be73dcb38b750a48f9a"
        }
      } ],
      "status": "final",
      "category": [ {
        "coding": [ {
          "system": "http://terminology.hl7.org/CodeSystem/observation-category",
          "code": "laboratory",
          "display": "Laboratory"
        }, {
          "system": "http://loinc.org",
          "code": "26436-6"
        } ]
      } ],
      "code": {
        "coding": [ {
          "system": "http://loinc.org",
          "code": "732-8",
          "display": "lymphocytes-in-blood-by-manual-count"
        } ],
        "text": "lymphozyten_absolut"
      },
      "subject": {
        "reference": "Patient/ed453467c56af402bc7ca7b52779dffc1fcbf4564e9c2e0b31171f1f311de03e"
      },
      "encounter": {
        "reference": "Encounter/9bf08d2957667be3cdba164221abe51c063e661403a1802e45d3ec3dd03bdd00"
      },
      "effectiveDateTime": "2020-11-28T20:30:00+00:00",
      "valueQuantity": {
        "value": 14.164794362985301,
        "unit": "10*3/uL",
        "system": "http://unitsofmeasure.org",
        "code": "10*3/uL"
      }
    },
    "request": {
      "method": "POST",
      "url": "Observation",
      "ifNoneExist": "identifier=https://mein.krankenhaus.de/fhir/NamingSystem/observationId|79d4016d45a019b798c3e062c374b56a3cd5de1247de3bc878ea507dc59d996c"
    }
  }, {
    "fullUrl": "Observation/63f8ea58ad3e6c28be36d2ae034f6383308edd7ba2aba678411de46721e09497",
    "resource": {
      "resourceType": "Observation",
      "meta": {
        "profile": [ "https://www.medizininformatik-initiative.de/fhir/core/modul-labor/StructureDefinition/ObservationLab" ]
      },
      "identifier": [ {
        "type": {
          "coding": [ {
            "system": "http://terminology.hl7.org/CodeSystem/v2-0203",
            "code": "OBI",
            "display": "Observation Instance Identifier"
          } ]
        },
        "system": "https://mein.krankenhaus.de/fhir/NamingSystem/observationId",
        "value": "a9f327666f690f1d3d3dfd8061e05da456f48cacf6e1d7ce3a4db460d12979a9",
        "assigner": {
          "reference": "Organization/3a4f3433bce81181bad2d8e0b8fafccf7dc800bc06f29be73dcb38b750a48f9a"
        }
      } ],
      "status": "final",
      "category": [ {
        "coding": [ {
          "system": "http://terminology.hl7.org/CodeSystem/observation-category",
          "code": "laboratory",
          "display": "Laboratory"
        }, {
          "system": "http://loinc.org",
          "code": "26436-6"
        } ]
      } ],
      "code": {
        "coding": [ {
          "system": "http://loinc.org",
          "code": "26499-4",
          "display": "neutrophils-in-blood"
        } ],
        "text": "neutrophile_absolut"
      },
      "subject": {
        "reference": "Patient/ed453467c56af402bc7ca7b52779dffc1fcbf4564e9c2e0b31171f1f311de03e"
      },
      "encounter": {
        "reference": "Encounter/9bf08d2957667be3cdba164221abe51c063e661403a1802e45d3ec3dd03bdd00"
      },
      "effectiveDateTime": "2020-11-28T20:30:00+00:00",
      "valueQuantity": {
        "value": 99.08160260098356,
        "unit": "10*3/uL",
        "system": "http://unitsofmeasure.org",
        "code": "10*3/uL"
      }
    },
    "request": {
      "method": "POST",
      "url": "Observation",
      "ifNoneExist": "identifier=https://mein.krankenhaus.de/fhir/NamingSystem/observationId|63f8ea58ad3e6c28be36d2ae034f6383308edd7ba2aba678411de46721e09497"
    }
  }, {
    "fullUrl": "Observation/99baef7be2f9d40d88a3cbe18ce215a933f495ee4ed0e1da7f45a2c507cefafa",
    "resource": {
      "resourceType": "Observation",
      "meta": {
        "profile": [ "https://www.medizininformatik-initiative.de/fhir/core/modul-labor/StructureDefinition/ObservationLab" ]
      },
      "identifier": [ {
        "type": {
          "coding": [ {
            "system": "http://terminology.hl7.org/CodeSystem/v2-0203",
            "code": "OBI",
            "display": "Observation Instance Identifier"
          } ]
        },
        "system": "https://mein.krankenhaus.de/fhir/NamingSystem/observationId",
        "value": "35539c6560938e38bf6a59b79b87c55deea9823af3ad976a7fe1034052335ce9",
        "assigner": {
          "reference": "Organization/3a4f3433bce81181bad2d8e0b8fafccf7dc800bc06f29be73dcb38b750a48f9a"
        }
      } ],
      "status": "final",
      "category": [ {
        "coding": [ {
          "system": "http://terminology.hl7.org/CodeSystem/observation-category",
          "code": "laboratory",
          "display": "Laboratory"
        }, {
          "system": "http://loinc.org",
          "code": "26436-6"
        } ]
      } ],
      "code": {
        "coding": [ {
          "system": "http://loinc.org",
          "code": "14979-9",
          "display": "aptt-in-platelet-poor-plasma-by-coagulation-assay"
        } ],
        "text": "ptt"
      },
      "subject": {
        "reference": "Patient/ed453467c56af402bc7ca7b52779dffc1fcbf4564e9c2e0b31171f1f311de03e"
      },
      "encounter": {
        "reference": "Encounter/9bf08d2957667be3cdba164221abe51c063e661403a1802e45d3ec3dd03bdd00"
      },
      "effectiveDateTime": "2020-11-28T20:30:00+00:00",
      "valueQuantity": {
        "value": 6.771914916678057,
        "unit": "s",
        "system": "http://unitsofmeasure.org",
        "code": "s"
      }
    },
    "request": {
      "method": "POST",
      "url": "Observation",
      "ifNoneExist": "identifier=https://mein.krankenhaus.de/fhir/NamingSystem/observationId|99baef7be2f9d40d88a3cbe18ce215a933f495ee4ed0e1da7f45a2c507cefafa"
    }
  }, {
    "fullUrl": "Observation/ac6dea13ab16e219c65f3c7dd22a644aac30d9a3de587d98a225d2022af09cd8",
    "resource": {
      "resourceType": "Observation",
      "meta": {
        "profile": [ "https://www.medizininformatik-initiative.de/fhir/core/modul-labor/StructureDefinition/ObservationLab" ]
      },
      "identifier": [ {
        "type": {
          "coding": [ {
            "system": "http://terminology.hl7.org/CodeSystem/v2-0203",
            "code": "OBI",
            "display": "Observation Instance Identifier"
          } ]
        },
        "system": "https://mein.krankenhaus.de/fhir/NamingSystem/observationId",
        "value": "afc5a047d4316ba54c6c6fb87783c53c2a95533cd5429f645b7b008646b71a0c",
        "assigner": {
          "reference": "Organization/3a4f3433bce81181bad2d8e0b8fafccf7dc800bc06f29be73dcb38b750a48f9a"
        }
      } ],
      "status": "final",
      "category": [ {
        "coding": [ {
          "system": "http://terminology.hl7.org/CodeSystem/observation-category",
          "code": "laboratory",
          "display": "Laboratory"
        }, {
          "system": "http://loinc.org",
          "code": "26436-6"
        } ]
      } ],
      "code": {
        "coding": [ {
          "system": "http://loinc.org",
          "code": "49497-1",
          "display": "platelets-in-blood-by-estimate"
        } ],
        "text": "thrombozyten_absolut"
      },
      "subject": {
        "reference": "Patient/ed453467c56af402bc7ca7b52779dffc1fcbf4564e9c2e0b31171f1f311de03e"
      },
      "encounter": {
        "reference": "Encounter/9bf08d2957667be3cdba164221abe51c063e661403a1802e45d3ec3dd03bdd00"
      },
      "effectiveDateTime": "2020-11-28T20:30:00+00:00",
      "valueQuantity": {
        "value": 70.41962999369242,
        "unit": "10*3/uL",
        "system": "http://unitsofmeasure.org",
        "code": "10*3/uL"
      }
    },
    "request": {
      "method": "POST",
      "url": "Observation",
      "ifNoneExist": "identifier=https://mein.krankenhaus.de/fhir/NamingSystem/observationId|ac6dea13ab16e219c65f3c7dd22a644aac30d9a3de587d98a225d2022af09cd8"
    }
  }, {
    "fullUrl": "Observation/659e3647cae3dbcc6b81a7cd44973c8a049959b822de83b4e29b46c22817801e",
    "resource": {
      "resourceType": "Observation",
      "meta": {
        "profile": [ "https://www.medizininformatik-initiative.de/fhir/core/modul-labor/StructureDefinition/ObservationLab" ]
      },
      "identifier": [ {
        "type": {
          "coding": [ {
            "system": "http://terminology.hl7.org/CodeSystem/v2-0203",
            "code": "OBI",
            "display": "Observation Instance Identifier"
          } ]
        },
        "system": "https://mein.krankenhaus.de/fhir/NamingSystem/observationId",
        "value": "ce1fa04ce1d51c4877580d8e48a4ace5b2d077fb3ab0d2576bc268db495b8bc3",
        "assigner": {
          "reference": "Organization/3a4f3433bce81181bad2d8e0b8fafccf7dc800bc06f29be73dcb38b750a48f9a"
        }
      } ],
      "status": "final",
      "category": [ {
        "coding": [ {
          "system": "http://terminology.hl7.org/CodeSystem/observation-category",
          "code": "laboratory",
          "display": "Laboratory"
        }, {
          "system": "http://loinc.org",
          "code": "26436-6"
        } ]
      } ],
      "code": {
        "coding": [ {
          "system": "http://loinc.org",
          "code": "46418-0",
          "display": "inr-in-capillary-blood-by-coagulation-assay"
        } ],
        "text": "inr"
      },
      "subject": {
        "reference": "Patient/ed453467c56af402bc7ca7b52779dffc1fcbf4564e9c2e0b31171f1f311de03e"
      },
      "encounter": {
        "reference": "Encounter/9bf08d2957667be3cdba164221abe51c063e661403a1802e45d3ec3dd03bdd00"
      },
      "effectiveDateTime": "2020-11-28T20:30:00+00:00",
      "valueQuantity": {
        "value": 98.6939244816315,
        "unit": "{INR}",
        "system": "http://unitsofmeasure.org",
        "code": "{INR}"
      }
    },
    "request": {
      "method": "POST",
      "url": "Observation",
      "ifNoneExist": "identifier=https://mein.krankenhaus.de/fhir/NamingSystem/observationId|659e3647cae3dbcc6b81a7cd44973c8a049959b822de83b4e29b46c22817801e"
    }
  }, {
    "fullUrl": "Observation/ac58aab9bef89e8e5d17150b8ce896885144190f55e9a20032ce9fc403406d8d",
    "resource": {
      "resourceType": "Observation",
      "meta": {
        "profile": [ "https://www.medizininformatik-initiative.de/fhir/core/modul-labor/StructureDefinition/ObservationLab" ]
      },
      "identifier": [ {
        "type": {
          "coding": [ {
            "system": "http://terminology.hl7.org/CodeSystem/v2-0203",
            "code": "OBI",
            "display": "Observation Instance Identifier"
          } ]
        },
        "system": "https://mein.krankenhaus.de/fhir/NamingSystem/observationId",
        "value": "e667766ea66a7498c53272674a41067d8a03abbf29fd064eac8075f5302c362c",
        "assigner": {
          "reference": "Organization/3a4f3433bce81181bad2d8e0b8fafccf7dc800bc06f29be73dcb38b750a48f9a"
        }
      } ],
      "status": "final",
      "category": [ {
        "coding": [ {
          "system": "http://terminology.hl7.org/CodeSystem/observation-category",
          "code": "laboratory",
          "display": "Laboratory"
        }, {
          "system": "http://loinc.org",
          "code": "26436-6"
        } ]
      } ],
      "code": {
        "coding": [ {
          "system": "http://loinc.org",
          "code": "2862-1",
          "display": "albumin-in-serum-or-plasma-by-electrophoresis"
        } ],
        "text": "serumalbumin"
      },
      "subject": {
        "reference": "Patient/ed453467c56af402bc7ca7b52779dffc1fcbf4564e9c2e0b31171f1f311de03e"
      },
      "encounter": {
        "reference": "Encounter/9bf08d2957667be3cdba164221abe51c063e661403a1802e45d3ec3dd03bdd00"
      },
      "effectiveDateTime": "2020-11-28T20:30:00+00:00",
      "valueQuantity": {
        "value": 30.43430470062952,
        "unit": "g/L",
        "system": "http://unitsofmeasure.org",
        "code": "g/L"
      }
    },
    "request": {
      "method": "POST",
      "url": "Observation",
      "ifNoneExist": "identifier=https://mein.krankenhaus.de/fhir/NamingSystem/observationId|ac58aab9bef89e8e5d17150b8ce896885144190f55e9a20032ce9fc403406d8d"
    }
  }, {
    "fullUrl": "Observation/fce33b4854c0ddcdaea7a271403cf071fdbc3c08a4f4cee70af88b338dd33f96",
    "resource": {
      "resourceType": "Observation",
      "meta": {
        "profile": [ "https://www.medizininformatik-initiative.de/fhir/core/modul-labor/StructureDefinition/ObservationLab" ]
      },
      "identifier": [ {
        "type": {
          "coding": [ {
            "system": "http://terminology.hl7.org/CodeSystem/v2-0203",
            "code": "OBI",
            "display": "Observation Instance Identifier"
          } ]
        },
        "system": "https://mein.krankenhaus.de/fhir/NamingSystem/observationId",
        "value": "1cc15a6e6e95f2391e8671e9bfbddda500bddc48a97ee541178848915031f0ab",
        "assigner": {
          "reference": "Organization/3a4f3433bce81181bad2d8e0b8fafccf7dc800bc06f29be73dcb38b750a48f9a"
        }
      } ],
      "status": "final",
      "category": [ {
        "coding": [ {
          "system": "http://terminology.hl7.org/CodeSystem/observation-category",
          "code": "laboratory",
          "display": "Laboratory"
        }, {
          "system": "http://loinc.org",
          "code": "26436-6"
        } ]
      } ],
      "code": {
        "coding": [ {
          "system": "http://loinc.org",
          "code": "27812-7",
          "display": "antithrombin-ag-actual-normal-in-platelet-poor-plasma-by-immunoassay"
        } ],
        "text": "antithrombin_iii"
      },
      "subject": {
        "reference": "Patient/ed453467c56af402bc7ca7b52779dffc1fcbf4564e9c2e0b31171f1f311de03e"
      },
      "encounter": {
        "reference": "Encounter/9bf08d2957667be3cdba164221abe51c063e661403a1802e45d3ec3dd03bdd00"
      },
      "effectiveDateTime": "2020-11-28T20:30:00+00:00",
      "valueQuantity": {
        "value": 17.97753985502961,
        "unit": "%",
        "system": "http://unitsofmeasure.org",
        "code": "%"
      }
    },
    "request": {
      "method": "POST",
      "url": "Observation",
      "ifNoneExist": "identifier=https://mein.krankenhaus.de/fhir/NamingSystem/observationId|fce33b4854c0ddcdaea7a271403cf071fdbc3c08a4f4cee70af88b338dd33f96"
    }
  }, {
    "fullUrl": "Observation/69a42d68967a47dea335e413e4a1b5d360379fa7045b2b6307d70cd7c6a9b6be",
    "resource": {
      "resourceType": "Observation",
      "meta": {
        "profile": [ "https://www.medizininformatik-initiative.de/fhir/core/modul-labor/StructureDefinition/ObservationLab" ]
      },
      "identifier": [ {
        "type": {
          "coding": [ {
            "system": "http://terminology.hl7.org/CodeSystem/v2-0203",
            "code": "OBI",
            "display": "Observation Instance Identifier"
          } ]
        },
        "system": "https://mein.krankenhaus.de/fhir/NamingSystem/observationId",
        "value": "8200e8428b1b501bc778bf48cb5ebbb7d33018c398032a0097eed52ca6291963",
        "assigner": {
          "reference": "Organization/3a4f3433bce81181bad2d8e0b8fafccf7dc800bc06f29be73dcb38b750a48f9a"
        }
      } ],
      "status": "final",
      "category": [ {
        "coding": [ {
          "system": "http://terminology.hl7.org/CodeSystem/observation-category",
          "code": "laboratory",
          "display": "Laboratory"
        }, {
          "system": "http://loinc.org",
          "code": "26436-6"
        } ]
      } ],
      "code": {
        "coding": [ {
          "system": "http://loinc.org",
          "code": "33959-8",
          "display": "procalcitonin-in-serum-or-plasma"
        } ],
        "text": "pct_procalcitonin"
      },
      "subject": {
        "reference": "Patient/ed453467c56af402bc7ca7b52779dffc1fcbf4564e9c2e0b31171f1f311de03e"
      },
      "encounter": {
        "reference": "Encounter/9bf08d2957667be3cdba164221abe51c063e661403a1802e45d3ec3dd03bdd00"
      },
      "effectiveDateTime": "2020-11-28T20:30:00+00:00",
      "valueQuantity": {
        "value": 38.384686035837355,
        "unit": "ng/mL",
        "system": "http://unitsofmeasure.org",
        "code": "ng/mL"
      }
    },
    "request": {
      "method": "POST",
      "url": "Observation",
      "ifNoneExist": "identifier=https://mein.krankenhaus.de/fhir/NamingSystem/observationId|69a42d68967a47dea335e413e4a1b5d360379fa7045b2b6307d70cd7c6a9b6be"
    }
  }, {
    "fullUrl": "Observation/c166ad1ac1bff8e495946601a39a08f36ead36d4bc4fdfd8d4d08e8cf31aa16d",
    "resource": {
      "resourceType": "Observation",
      "meta": {
        "profile": [ "https://www.medizininformatik-initiative.de/fhir/core/modul-labor/StructureDefinition/ObservationLab" ]
      },
      "identifier": [ {
        "type": {
          "coding": [ {
            "system": "http://terminology.hl7.org/CodeSystem/v2-0203",
            "code": "OBI",
            "display": "Observation Instance Identifier"
          } ]
        },
        "system": "https://mein.krankenhaus.de/fhir/NamingSystem/observationId",
        "value": "86fd077dc225ed5faa786618dd1b77705b9fdfe985e0ed68369457e24e8654dc",
        "assigner": {
          "reference": "Organization/3a4f3433bce81181bad2d8e0b8fafccf7dc800bc06f29be73dcb38b750a48f9a"
        }
      } ],
      "status": "final",
      "category": [ {
        "coding": [ {
          "system": "http://terminology.hl7.org/CodeSystem/observation-category",
          "code": "laboratory",
          "display": "Laboratory"
        }, {
          "system": "http://loinc.org",
          "code": "26436-6"
        } ]
      } ],
      "code": {
        "coding": [ {
          "system": "http://loinc.org",
          "code": "26881-3",
          "display": "interleukin-6-in-serum-or-plasma"
        } ],
        "text": "il6_interleukin_6"
      },
      "subject": {
        "reference": "Patient/ed453467c56af402bc7ca7b52779dffc1fcbf4564e9c2e0b31171f1f311de03e"
      },
      "encounter": {
        "reference": "Encounter/9bf08d2957667be3cdba164221abe51c063e661403a1802e45d3ec3dd03bdd00"
      },
      "effectiveDateTime": "2020-11-28T20:30:00+00:00",
      "valueQuantity": {
        "value": 11.293133584687531,
        "unit": "pg/mL",
        "system": "http://unitsofmeasure.org",
        "code": "pg/mL"
      }
    },
    "request": {
      "method": "POST",
      "url": "Observation",
      "ifNoneExist": "identifier=https://mein.krankenhaus.de/fhir/NamingSystem/observationId|c166ad1ac1bff8e495946601a39a08f36ead36d4bc4fdfd8d4d08e8cf31aa16d"
    }
  }, {
    "fullUrl": "Observation/76d38a06c8f7cae4454f28e4f197b87eddfa049bf26b79053d0e1f15e7bed482",
    "resource": {
      "resourceType": "Observation",
      "meta": {
        "profile": [ "https://www.medizininformatik-initiative.de/fhir/core/modul-labor/StructureDefinition/ObservationLab" ]
      },
      "identifier": [ {
        "type": {
          "coding": [ {
            "system": "http://terminology.hl7.org/CodeSystem/v2-0203",
            "code": "OBI",
            "display": "Observation Instance Identifier"
          } ]
        },
        "system": "https://mein.krankenhaus.de/fhir/NamingSystem/observationId",
        "value": "3c567be40c79da5c2f6b8ce0a559ad620bc4dffc9626ceefb7d4b18d18e281ba",
        "assigner": {
          "reference": "Organization/3a4f3433bce81181bad2d8e0b8fafccf7dc800bc06f29be73dcb38b750a48f9a"
        }
      } ],
      "status": "final",
      "category": [ {
        "coding": [ {
          "system": "http://terminology.hl7.org/CodeSystem/observation-category",
          "code": "laboratory",
          "display": "Laboratory"
        }, {
          "system": "http://loinc.org",
          "code": "26436-6"
        } ]
      } ],
      "code": {
        "coding": [ {
          "system": "http://loinc.org",
          "code": "83107-3",
          "display": "natriuretic-peptide.b-prohormone-n-terminal-in-serum-or-plasma-by-immunoassay"
        } ],
        "text": "ntprobnp"
      },
      "subject": {
        "reference": "Patient/ed453467c56af402bc7ca7b52779dffc1fcbf4564e9c2e0b31171f1f311de03e"
      },
      "encounter": {
        "reference": "Encounter/9bf08d2957667be3cdba164221abe51c063e661403a1802e45d3ec3dd03bdd00"
      },
      "effectiveDateTime": "2020-11-28T20:30:00+00:00",
      "valueQuantity": {
        "value": 26.737902265982516,
        "unit": "pg/mL",
        "system": "http://unitsofmeasure.org",
        "code": "pg/mL"
      }
    },
    "request": {
      "method": "POST",
      "url": "Observation",
      "ifNoneExist": "identifier=https://mein.krankenhaus.de/fhir/NamingSystem/observationId|76d38a06c8f7cae4454f28e4f197b87eddfa049bf26b79053d0e1f15e7bed482"
    }
  }, {
    "fullUrl": "Observation/5ea9d4c91e630aec5f6cbcb78a2c27422712111c2d85771ec16a99396e862390",
    "resource": {
      "resourceType": "Observation",
      "meta": {
        "profile": [ "https://www.netzwerk-universitaetsmedizin.de/fhir/StructureDefinition/sars-cov-2-rt-pcr" ]
      },
      "identifier": [ {
        "type": {
          "coding": [ {
            "system": "http://terminology.hl7.org/CodeSystem/v2-0203",
            "code": "OBI",
            "display": "Observation Instance Identifier"
          } ]
        },
        "system": "https://mein.krankenhaus.de/fhir/NamingSystem/observationId",
        "value": "3e12334a65355da9af4676eee427aaac88787a6ddec5a300b8f63b2966ca0a7c",
        "assigner": {
          "reference": "Organization/3a4f3433bce81181bad2d8e0b8fafccf7dc800bc06f29be73dcb38b750a48f9a"
        }
      } ],
      "status": "final",
      "category": [ {
        "coding": [ {
          "system": "http://terminology.hl7.org/CodeSystem/observation-category",
          "code": "laboratory",
          "display": "Laboratory"
        }, {
          "system": "http://loinc.org",
          "code": "26436-6"
        } ]
      } ],
      "code": {
        "coding": [ {
          "system": "http://loinc.org",
          "code": "94500-6",
          "display": "sars-cov-2-covid-19-rna-in-respiratory-specimen-by-naa-with-probe-detection"
        } ],
        "text": "SARS-CoV-2-RNA (PCR)"
      },
      "subject": {
        "reference": "Patient/ed453467c56af402bc7ca7b52779dffc1fcbf4564e9c2e0b31171f1f311de03e"
      },
      "encounter": {
        "reference": "Encounter/9bf08d2957667be3cdba164221abe51c063e661403a1802e45d3ec3dd03bdd00"
      },
      "effectiveDateTime": "2020-11-28T20:30:00+00:00",
      "valueCodeableConcept": {
        "coding": [ {
          "system": "http://snomed.info/sct",
          "code": "260373001",
          "display": "Detected (qualifier value)"
        } ],
        "text": "SARS-CoV-2-RNA positiv"
      }
    },
    "request": {
      "method": "POST",
      "url": "Observation",
      "ifNoneExist": "identifier=https://mein.krankenhaus.de/fhir/NamingSystem/observationId|5ea9d4c91e630aec5f6cbcb78a2c27422712111c2d85771ec16a99396e862390"
    }
  }, {
    "fullUrl": "Observation/16d679a31d8c0136056d38c0a54411f569770a19e8686e73ba235d14cda52a7f",
    "resource": {
      "resourceType": "Observation",
      "meta": {
        "profile": [ "https://www.netzwerk-universitaetsmedizin.de/fhir/StructureDefinition/sars-cov-2-ab-pnl-ser-pl-ia" ]
      },
      "identifier": [ {
        "type": {
          "coding": [ {
            "system": "http://terminology.hl7.org/CodeSystem/v2-0203",
            "code": "OBI",
            "display": "Observation Instance Identifier"
          } ]
        },
        "system": "https://mein.krankenhaus.de/fhir/NamingSystem/observationId",
        "value": "d370642ea3c1009cc3f219deb134878d86a19742c680f1fd6b5ecec285ff8410",
        "assigner": {
          "reference": "Organization/3a4f3433bce81181bad2d8e0b8fafccf7dc800bc06f29be73dcb38b750a48f9a"
        }
      } ],
      "status": "final",
      "category": [ {
        "coding": [ {
          "system": "http://terminology.hl7.org/CodeSystem/observation-category",
          "code": "laboratory",
          "display": "Laboratory"
        }, {
          "system": "http://loinc.org",
          "code": "26436-6"
        } ]
      } ],
      "code": {
        "coding": [ {
          "system": "http://loinc.org",
          "code": "94504-8"
        } ],
        "text": "sarsco_v2_covid19_ab_pnl"
      },
      "subject": {
        "reference": "Patient/ed453467c56af402bc7ca7b52779dffc1fcbf4564e9c2e0b31171f1f311de03e"
      },
      "encounter": {
        "reference": "Encounter/9bf08d2957667be3cdba164221abe51c063e661403a1802e45d3ec3dd03bdd00"
      },
      "effectiveDateTime": "2020-11-28T20:30:00+00:00",
      "hasMember": [ {
        "reference": "Observation/06bc06810f8f6bc8e6ce704594a3d881814eecea9f64b151fe220b081a299b2c"
      }, {
        "reference": "Observation/d3b82f6415e7887284858d6c8f8688e480e274b0716b4e608ce6b2794b6ef6ee"
      }, {
        "reference": "Observation/d49eaacc5541a578ab2f721684467dd3ce5d9d6cde8df1ec06b108191a3c46c0"
      }, {
        "reference": "Observation/dcb3afd0291d77420c3e45be031ed8db4720427608005e4d662ed9746bd979d9"
      }, {
        "reference": "Observation/f0118ac3f3c4d4fa141f0df35a31d8bc06bc9949b9922848abe49f8c22b7c62e"
      }, {
        "reference": "Observation/357ae3be27aef7429e36db87e2e123ac5a35f5398f49e659f1df1011a0c1f01e"
      } ]
    },
    "request": {
      "method": "POST",
      "url": "Observation",
      "ifNoneExist": "identifier=https://mein.krankenhaus.de/fhir/NamingSystem/observationId|16d679a31d8c0136056d38c0a54411f569770a19e8686e73ba235d14cda52a7f"
    }
  }, {
    "fullUrl": "Observation/06bc06810f8f6bc8e6ce704594a3d881814eecea9f64b151fe220b081a299b2c",
    "resource": {
      "resourceType": "Observation",
      "meta": {
        "profile": [ "https://www.netzwerk-universitaetsmedizin.de/fhir/StructureDefinition/sars-cov-2-ab-ser-pl-ql-ia" ]
      },
      "identifier": [ {
        "type": {
          "coding": [ {
            "system": "http://terminology.hl7.org/CodeSystem/v2-0203",
            "code": "OBI",
            "display": "Observation Instance Identifier"
          } ]
        },
        "system": "https://mein.krankenhaus.de/fhir/NamingSystem/observationId",
        "value": "d0a63bc755ef4ce036ef254a43e8bd3a7caa29ee752669a5b690774f11476bab",
        "assigner": {
          "reference": "Organization/3a4f3433bce81181bad2d8e0b8fafccf7dc800bc06f29be73dcb38b750a48f9a"
        }
      } ],
      "status": "final",
      "category": [ {
        "coding": [ {
          "system": "http://terminology.hl7.org/CodeSystem/observation-category",
          "code": "laboratory",
          "display": "Laboratory"
        }, {
          "system": "http://loinc.org",
          "code": "26436-6"
        } ]
      } ],
      "code": {
        "coding": [ {
          "system": "http://loinc.org",
          "code": "94762-2",
          "display": "sars-cov-2-covid-19-ab-in-serum-or-plasma-by-immunoassay"
        } ],
        "text": "sarsco_v2_covid19_ab_ia_ql"
      },
      "subject": {
        "reference": "Patient/ed453467c56af402bc7ca7b52779dffc1fcbf4564e9c2e0b31171f1f311de03e"
      },
      "encounter": {
        "reference": "Encounter/9bf08d2957667be3cdba164221abe51c063e661403a1802e45d3ec3dd03bdd00"
      },
      "effectiveDateTime": "2020-11-28T20:30:00+00:00",
      "valueCodeableConcept": {
        "coding": [ {
          "system": "http://snomed.info/sct",
          "code": "419984006"
        } ]
      }
    },
    "request": {
      "method": "POST",
      "url": "Observation",
      "ifNoneExist": "identifier=https://mein.krankenhaus.de/fhir/NamingSystem/observationId|06bc06810f8f6bc8e6ce704594a3d881814eecea9f64b151fe220b081a299b2c"
    }
  }, {
    "fullUrl": "Observation/d3b82f6415e7887284858d6c8f8688e480e274b0716b4e608ce6b2794b6ef6ee",
    "resource": {
      "resourceType": "Observation",
      "meta": {
        "profile": [ "https://www.netzwerk-universitaetsmedizin.de/fhir/StructureDefinition/sars-cov-2-iga-ser-pl-ql-ia" ]
      },
      "identifier": [ {
        "type": {
          "coding": [ {
            "system": "http://terminology.hl7.org/CodeSystem/v2-0203",
            "code": "OBI",
            "display": "Observation Instance Identifier"
          } ]
        },
        "system": "https://mein.krankenhaus.de/fhir/NamingSystem/observationId",
        "value": "18912943887b13ccfba81a2945b6f3ec6b153bd60457d6f76686a69ea3f92cac",
        "assigner": {
          "reference": "Organization/3a4f3433bce81181bad2d8e0b8fafccf7dc800bc06f29be73dcb38b750a48f9a"
        }
      } ],
      "status": "final",
      "category": [ {
        "coding": [ {
          "system": "http://terminology.hl7.org/CodeSystem/observation-category",
          "code": "laboratory",
          "display": "Laboratory"
        }, {
          "system": "http://loinc.org",
          "code": "26436-6"
        } ]
      } ],
      "code": {
        "coding": [ {
          "system": "http://loinc.org",
          "code": "94562-6",
          "display": "sars-cov-2-covid-19-iga-ab-in-serum-or-plasma-by-immunoassay"
        } ],
        "text": "sarsco_v2_covid19_ig_a_ia_ql"
      },
      "subject": {
        "reference": "Patient/ed453467c56af402bc7ca7b52779dffc1fcbf4564e9c2e0b31171f1f311de03e"
      },
      "encounter": {
        "reference": "Encounter/9bf08d2957667be3cdba164221abe51c063e661403a1802e45d3ec3dd03bdd00"
      },
      "effectiveDateTime": "2020-11-28T20:30:00+00:00",
      "valueCodeableConcept": {
        "coding": [ {
          "system": "http://snomed.info/sct",
          "code": "260415000"
        } ]
      }
    },
    "request": {
      "method": "POST",
      "url": "Observation",
      "ifNoneExist": "identifier=https://mein.krankenhaus.de/fhir/NamingSystem/observationId|d3b82f6415e7887284858d6c8f8688e480e274b0716b4e608ce6b2794b6ef6ee"
    }
  }, {
    "fullUrl": "Observation/d49eaacc5541a578ab2f721684467dd3ce5d9d6cde8df1ec06b108191a3c46c0",
    "resource": {
      "resourceType": "Observation",
      "meta": {
        "profile": [ "https://www.netzwerk-universitaetsmedizin.de/fhir/StructureDefinition/sars-cov-2-iga-ser-pl-ia-acnc" ]
      },
      "identifier": [ {
        "type": {
          "coding": [ {
            "system": "http://terminology.hl7.org/CodeSystem/v2-0203",
            "code": "OBI",
            "display": "Observation Instance Identifier"
          } ]
        },
        "system": "https://mein.krankenhaus.de/fhir/NamingSystem/observationId",
        "value": "8f09d23af9f07a80ae9899aab7f437d8e944687005e796ac7af4bdf361f6bf18",
        "assigner": {
          "reference": "Organization/3a4f3433bce81181bad2d8e0b8fafccf7dc800bc06f29be73dcb38b750a48f9a"
        }
      } ],
      "status": "final",
      "category": [ {
        "coding": [ {
          "system": "http://terminology.hl7.org/CodeSystem/observation-category",
          "code": "laboratory",
          "display": "Laboratory"
        }, {
          "system": "http://loinc.org",
          "code": "26436-6"
        } ]
      } ],
      "code": {
        "coding": [ {
          "system": "http://loinc.org",
          "code": "94720-0",
          "display": "sars-cov-2-covid-19-iga-ab-in-serum-or-plasma-by-immunoassay"
        } ],
        "text": "sarsco_v2_covid19_ig_a_ia_qn"
      },
      "subject": {
        "reference": "Patient/ed453467c56af402bc7ca7b52779dffc1fcbf4564e9c2e0b31171f1f311de03e"
      },
      "encounter": {
        "reference": "Encounter/9bf08d2957667be3cdba164221abe51c063e661403a1802e45d3ec3dd03bdd00"
      },
      "effectiveDateTime": "2020-11-28T20:30:00+00:00",
      "valueQuantity": {
        "value": 69.32390266020391,
        "unit": "[IU]/mL",
        "system": "http://unitsofmeasure.org",
        "code": "[IU]/mL"
      }
    },
    "request": {
      "method": "POST",
      "url": "Observation",
      "ifNoneExist": "identifier=https://mein.krankenhaus.de/fhir/NamingSystem/observationId|d49eaacc5541a578ab2f721684467dd3ce5d9d6cde8df1ec06b108191a3c46c0"
    }
  }, {
    "fullUrl": "Observation/dcb3afd0291d77420c3e45be031ed8db4720427608005e4d662ed9746bd979d9",
    "resource": {
      "resourceType": "Observation",
      "meta": {
        "profile": [ "https://www.netzwerk-universitaetsmedizin.de/fhir/StructureDefinition/sars-cov-2-igg-ser-pl-ia-acnc" ]
      },
      "identifier": [ {
        "type": {
          "coding": [ {
            "system": "http://terminology.hl7.org/CodeSystem/v2-0203",
            "code": "OBI",
            "display": "Observation Instance Identifier"
          } ]
        },
        "system": "https://mein.krankenhaus.de/fhir/NamingSystem/observationId",
        "value": "0ec6b5e6272c8c30a692f1f6212ec4545d922f2dd929e28d8344dcbfc5c071ad",
        "assigner": {
          "reference": "Organization/3a4f3433bce81181bad2d8e0b8fafccf7dc800bc06f29be73dcb38b750a48f9a"
        }
      } ],
      "status": "final",
      "category": [ {
        "coding": [ {
          "system": "http://terminology.hl7.org/CodeSystem/observation-category",
          "code": "laboratory",
          "display": "Laboratory"
        }, {
          "system": "http://loinc.org",
          "code": "26436-6"
        } ]
      } ],
      "code": {
        "coding": [ {
          "system": "http://loinc.org",
          "code": "94505-5",
          "display": "sars-cov-2-covid-19-igg-ab-in-serum-or-plasma-by-immunoassay"
        } ],
        "text": "sarsco_v2_covid19_ig_g_ia_qn"
      },
      "subject": {
        "reference": "Patient/ed453467c56af402bc7ca7b52779dffc1fcbf4564e9c2e0b31171f1f311de03e"
      },
      "encounter": {
        "reference": "Encounter/9bf08d2957667be3cdba164221abe51c063e661403a1802e45d3ec3dd03bdd00"
      },
      "effectiveDateTime": "2020-11-28T20:30:00+00:00",
      "valueQuantity": {
        "value": 33.79258094202038,
        "unit": "[arb'U]/mL",
        "system": "http://unitsofmeasure.org",
        "code": "[arb'U]/mL"
      }
    },
    "request": {
      "method": "POST",
      "url": "Observation",
      "ifNoneExist": "identifier=https://mein.krankenhaus.de/fhir/NamingSystem/observationId|dcb3afd0291d77420c3e45be031ed8db4720427608005e4d662ed9746bd979d9"
    }
  }, {
    "fullUrl": "Observation/f0118ac3f3c4d4fa141f0df35a31d8bc06bc9949b9922848abe49f8c22b7c62e",
    "resource": {
      "resourceType": "Observation",
      "meta": {
        "profile": [ "https://www.netzwerk-universitaetsmedizin.de/fhir/StructureDefinition/sars-cov-2-igm-ser-pl-ql-ia" ]
      },
      "identifier": [ {
        "type": {
          "coding": [ {
            "system": "http://terminology.hl7.org/CodeSystem/v2-0203",
            "code": "OBI",
            "display": "Observation Instance Identifier"
          } ]
        },
        "system": "https://mein.krankenhaus.de/fhir/NamingSystem/observationId",
        "value": "7b862fa0bf0f5e619ea13cffcf5201c5c5c4cc33ca77b760b4f730612ef8e301",
        "assigner": {
          "reference": "Organization/3a4f3433bce81181bad2d8e0b8fafccf7dc800bc06f29be73dcb38b750a48f9a"
        }
      } ],
      "status": "final",
      "category": [ {
        "coding": [ {
          "system": "http://terminology.hl7.org/CodeSystem/observation-category",
          "code": "laboratory",
          "display": "Laboratory"
        }, {
          "system": "http://loinc.org",
          "code": "26436-6"
        } ]
      } ],
      "code": {
        "coding": [ {
          "system": "http://loinc.org",
          "code": "94564-2",
          "display": "sars-cov-2-covid-19-igm-ab-in-serum-or-plasma-by-immunoassay"
        } ],
        "text": "sarsco_v2_covid19_ig_m_ia_ql"
      },
      "subject": {
        "reference": "Patient/ed453467c56af402bc7ca7b52779dffc1fcbf4564e9c2e0b31171f1f311de03e"
      },
      "encounter": {
        "reference": "Encounter/9bf08d2957667be3cdba164221abe51c063e661403a1802e45d3ec3dd03bdd00"
      },
      "effectiveDateTime": "2020-11-28T20:30:00+00:00",
      "valueCodeableConcept": {
        "coding": [ {
          "system": "http://snomed.info/sct",
          "code": "419984006"
        } ]
      }
    },
    "request": {
      "method": "POST",
      "url": "Observation",
      "ifNoneExist": "identifier=https://mein.krankenhaus.de/fhir/NamingSystem/observationId|f0118ac3f3c4d4fa141f0df35a31d8bc06bc9949b9922848abe49f8c22b7c62e"
    }
  }, {
    "fullUrl": "Observation/357ae3be27aef7429e36db87e2e123ac5a35f5398f49e659f1df1011a0c1f01e",
    "resource": {
      "resourceType": "Observation",
      "meta": {
        "profile": [ "https://www.netzwerk-universitaetsmedizin.de/fhir/StructureDefinition/sars-cov-2-igm-ser-pl-ia-acnc" ]
      },
      "identifier": [ {
        "type": {
          "coding": [ {
            "system": "http://terminology.hl7.org/CodeSystem/v2-0203",
            "code": "OBI",
            "display": "Observation Instance Identifier"
          } ]
        },
        "system": "https://mein.krankenhaus.de/fhir/NamingSystem/observationId",
        "value": "8dd8fe706a305f6418ab27ef46ab485543b493ad519a200e0911420c37bec5a2",
        "assigner": {
          "reference": "Organization/3a4f3433bce81181bad2d8e0b8fafccf7dc800bc06f29be73dcb38b750a48f9a"
        }
      } ],
      "status": "final",
      "category": [ {
        "coding": [ {
          "system": "http://terminology.hl7.org/CodeSystem/observation-category",
          "code": "laboratory",
          "display": "Laboratory"
        }, {
          "system": "http://loinc.org",
          "code": "26436-6"
        } ]
      } ],
      "code": {
        "coding": [ {
          "system": "http://loinc.org",
          "code": "94506-3",
          "display": "sars-cov-2-covid-19-igm-ab-in-serum-or-plasma-by-immunoassay"
        } ],
        "text": "sarsco_v2_covid19_ig_m_ia_qn"
      },
      "subject": {
        "reference": "Patient/ed453467c56af402bc7ca7b52779dffc1fcbf4564e9c2e0b31171f1f311de03e"
      },
      "encounter": {
        "reference": "Encounter/9bf08d2957667be3cdba164221abe51c063e661403a1802e45d3ec3dd03bdd00"
      },
      "effectiveDateTime": "2020-11-28T20:30:00+00:00",
      "valueQuantity": {
        "value": 51.97503809617826,
        "unit": "[arb'U]/mL",
        "system": "http://unitsofmeasure.org",
        "code": "[arb'U]/mL"
      }
    },
    "request": {
      "method": "POST",
      "url": "Observation",
      "ifNoneExist": "identifier=https://mein.krankenhaus.de/fhir/NamingSystem/observationId|357ae3be27aef7429e36db87e2e123ac5a35f5398f49e659f1df1011a0c1f01e"
    }
  }, {
    "fullUrl": "Observation/dda4f8d4103c3218bffa7d5ee1bd70f14bf13bf081f47453877f05ba50922092",
    "resource": {
      "resourceType": "Observation",
      "meta": {
        "profile": [ "https://www.medizininformatik-initiative.de/fhir/core/modul-labor/StructureDefinition/ObservationLab" ]
      },
      "identifier": [ {
        "type": {
          "coding": [ {
            "system": "http://terminology.hl7.org/CodeSystem/v2-0203",
            "code": "OBI",
            "display": "Observation Instance Identifier"
          } ]
        },
        "system": "https://mein.krankenhaus.de/fhir/NamingSystem/observationId",
        "value": "43c69c213ea12ef68550a1a31b62ecfe5d80be517217c3c248194ba022f980af",
        "assigner": {
          "reference": "Organization/3a4f3433bce81181bad2d8e0b8fafccf7dc800bc06f29be73dcb38b750a48f9a"
        }
      } ],
      "status": "final",
      "category": [ {
        "coding": [ {
          "system": "http://terminology.hl7.org/CodeSystem/observation-category",
          "code": "laboratory",
          "display": "Laboratory"
        }, {
          "system": "http://loinc.org",
          "code": "26436-6"
        } ]
      } ],
      "code": {
        "coding": [ {
          "system": "http://loinc.org",
          "code": "30522-7",
          "display": "c-reactive-protein-in-serum-or-plasma-by-high-sensitivity-method"
        } ],
        "text": "crp"
      },
      "subject": {
        "reference": "Patient/ed453467c56af402bc7ca7b52779dffc1fcbf4564e9c2e0b31171f1f311de03e"
      },
      "encounter": {
        "reference": "Encounter/9bf08d2957667be3cdba164221abe51c063e661403a1802e45d3ec3dd03bdd00"
      },
      "effectiveDateTime": "2020-01-21T10:54:00+00:00",
      "valueQuantity": {
        "value": 96.18676398713824,
        "unit": "mg/dL",
        "system": "http://unitsofmeasure.org",
        "code": "mg/dL"
      }
    },
    "request": {
      "method": "POST",
      "url": "Observation",
      "ifNoneExist": "identifier=https://mein.krankenhaus.de/fhir/NamingSystem/observationId|dda4f8d4103c3218bffa7d5ee1bd70f14bf13bf081f47453877f05ba50922092"
    }
  }, {
    "fullUrl": "Observation/595c0e5f98d8c01d3c487b9a505dd120cc54ee3877514eac157344674710456e",
    "resource": {
      "resourceType": "Observation",
      "meta": {
        "profile": [ "https://www.medizininformatik-initiative.de/fhir/core/modul-labor/StructureDefinition/ObservationLab" ]
      },
      "identifier": [ {
        "type": {
          "coding": [ {
            "system": "http://terminology.hl7.org/CodeSystem/v2-0203",
            "code": "OBI",
            "display": "Observation Instance Identifier"
          } ]
        },
        "system": "https://mein.krankenhaus.de/fhir/NamingSystem/observationId",
        "value": "17e2e43c5324f7836645133d6d635df4aaad99b54116214ccb58f42c85089741",
        "assigner": {
          "reference": "Organization/3a4f3433bce81181bad2d8e0b8fafccf7dc800bc06f29be73dcb38b750a48f9a"
        }
      } ],
      "status": "final",
      "category": [ {
        "coding": [ {
          "system": "http://terminology.hl7.org/CodeSystem/observation-category",
          "code": "laboratory",
          "display": "Laboratory"
        }, {
          "system": "http://loinc.org",
          "code": "26436-6"
        } ]
      } ],
      "code": {
        "coding": [ {
          "system": "http://loinc.org",
          "code": "24373-3",
          "display": "ferritin-in-blood"
        } ],
        "text": "ferritin"
      },
      "subject": {
        "reference": "Patient/ed453467c56af402bc7ca7b52779dffc1fcbf4564e9c2e0b31171f1f311de03e"
      },
      "encounter": {
        "reference": "Encounter/9bf08d2957667be3cdba164221abe51c063e661403a1802e45d3ec3dd03bdd00"
      },
      "effectiveDateTime": "2020-01-21T10:54:00+00:00",
      "valueQuantity": {
        "value": 92.77320762896876,
        "unit": "ng/mL",
        "system": "http://unitsofmeasure.org",
        "code": "ng/mL"
      }
    },
    "request": {
      "method": "POST",
      "url": "Observation",
      "ifNoneExist": "identifier=https://mein.krankenhaus.de/fhir/NamingSystem/observationId|595c0e5f98d8c01d3c487b9a505dd120cc54ee3877514eac157344674710456e"
    }
  }, {
    "fullUrl": "Observation/a2499eda08d31897e8e7c33cbe42cc21ba85f28997e3f992b92f5ff80a43b86a",
    "resource": {
      "resourceType": "Observation",
      "meta": {
        "profile": [ "https://www.medizininformatik-initiative.de/fhir/core/modul-labor/StructureDefinition/ObservationLab" ]
      },
      "identifier": [ {
        "type": {
          "coding": [ {
            "system": "http://terminology.hl7.org/CodeSystem/v2-0203",
            "code": "OBI",
            "display": "Observation Instance Identifier"
          } ]
        },
        "system": "https://mein.krankenhaus.de/fhir/NamingSystem/observationId",
        "value": "5ee7b02367d37430981b422e158d175ba5fd36bfe79edb8eb6edfa5ae504082c",
        "assigner": {
          "reference": "Organization/3a4f3433bce81181bad2d8e0b8fafccf7dc800bc06f29be73dcb38b750a48f9a"
        }
      } ],
      "status": "final",
      "category": [ {
        "coding": [ {
          "system": "http://terminology.hl7.org/CodeSystem/observation-category",
          "code": "laboratory",
          "display": "Laboratory"
        }, {
          "system": "http://loinc.org",
          "code": "26436-6"
        } ]
      } ],
      "code": {
        "coding": [ {
          "system": "http://loinc.org",
          "code": "59827-6",
          "display": "bilirubin.total-in-arterial-blood"
        } ],
        "text": "bilirubin"
      },
      "subject": {
        "reference": "Patient/ed453467c56af402bc7ca7b52779dffc1fcbf4564e9c2e0b31171f1f311de03e"
      },
      "encounter": {
        "reference": "Encounter/9bf08d2957667be3cdba164221abe51c063e661403a1802e45d3ec3dd03bdd00"
      },
      "effectiveDateTime": "2020-01-21T10:54:00+00:00",
      "valueQuantity": {
        "value": 86.05140302810612,
        "unit": "mg/dL",
        "system": "http://unitsofmeasure.org",
        "code": "mg/dL"
      }
    },
    "request": {
      "method": "POST",
      "url": "Observation",
      "ifNoneExist": "identifier=https://mein.krankenhaus.de/fhir/NamingSystem/observationId|a2499eda08d31897e8e7c33cbe42cc21ba85f28997e3f992b92f5ff80a43b86a"
    }
  }, {
    "fullUrl": "Observation/d327d6af18e37afb64efc92afe3f19c16a4df5d0f66653d55082c37670bc5506",
    "resource": {
      "resourceType": "Observation",
      "meta": {
        "profile": [ "https://www.medizininformatik-initiative.de/fhir/core/modul-labor/StructureDefinition/ObservationLab" ]
      },
      "identifier": [ {
        "type": {
          "coding": [ {
            "system": "http://terminology.hl7.org/CodeSystem/v2-0203",
            "code": "OBI",
            "display": "Observation Instance Identifier"
          } ]
        },
        "system": "https://mein.krankenhaus.de/fhir/NamingSystem/observationId",
        "value": "ea06aee14751c13c343137224db274efc926bb40c6ae667303801cfd7b1752c0",
        "assigner": {
          "reference": "Organization/3a4f3433bce81181bad2d8e0b8fafccf7dc800bc06f29be73dcb38b750a48f9a"
        }
      } ],
      "status": "final",
      "category": [ {
        "coding": [ {
          "system": "http://terminology.hl7.org/CodeSystem/observation-category",
          "code": "laboratory",
          "display": "Laboratory"
        }, {
          "system": "http://loinc.org",
          "code": "26436-6"
        } ]
      } ],
      "code": {
        "coding": [ {
          "system": "http://loinc.org",
          "code": "48067-3",
          "display": "fibrin-d-dimer-feu-in-platelet-poor-plasma-by-immunoassay"
        } ],
        "text": "ddimer"
      },
      "subject": {
        "reference": "Patient/ed453467c56af402bc7ca7b52779dffc1fcbf4564e9c2e0b31171f1f311de03e"
      },
      "encounter": {
        "reference": "Encounter/9bf08d2957667be3cdba164221abe51c063e661403a1802e45d3ec3dd03bdd00"
      },
      "effectiveDateTime": "2020-01-21T10:54:00+00:00",
      "valueQuantity": {
        "value": 71.74499077825726,
        "unit": "ug/mL{FEU}",
        "system": "http://unitsofmeasure.org",
        "code": "ug/mL{FEU}"
      }
    },
    "request": {
      "method": "POST",
      "url": "Observation",
      "ifNoneExist": "identifier=https://mein.krankenhaus.de/fhir/NamingSystem/observationId|d327d6af18e37afb64efc92afe3f19c16a4df5d0f66653d55082c37670bc5506"
    }
  }, {
    "fullUrl": "Observation/88ec493bea0be543258abce5970b882d8c650bc7f993fa8f54515461835a95fa",
    "resource": {
      "resourceType": "Observation",
      "meta": {
        "profile": [ "https://www.medizininformatik-initiative.de/fhir/core/modul-labor/StructureDefinition/ObservationLab" ]
      },
      "identifier": [ {
        "type": {
          "coding": [ {
            "system": "http://terminology.hl7.org/CodeSystem/v2-0203",
            "code": "OBI",
            "display": "Observation Instance Identifier"
          } ]
        },
        "system": "https://mein.krankenhaus.de/fhir/NamingSystem/observationId",
        "value": "cb12e4fa9d0375174cca27d9c5e707037785e98cd0861df1582c4d4fd83eacdc",
        "assigner": {
          "reference": "Organization/3a4f3433bce81181bad2d8e0b8fafccf7dc800bc06f29be73dcb38b750a48f9a"
        }
      } ],
      "status": "final",
      "category": [ {
        "coding": [ {
          "system": "http://terminology.hl7.org/CodeSystem/observation-category",
          "code": "laboratory",
          "display": "Laboratory"
        }, {
          "system": "http://loinc.org",
          "code": "26436-6"
        } ]
      } ],
      "code": {
        "coding": [ {
          "system": "http://loinc.org",
          "code": "2325-9",
          "display": "gamma-glutamyl-transferase-aspartate-aminotransferase-in-serum-or-plasma"
        } ],
        "text": "gammagt"
      },
      "subject": {
        "reference": "Patient/ed453467c56af402bc7ca7b52779dffc1fcbf4564e9c2e0b31171f1f311de03e"
      },
      "encounter": {
        "reference": "Encounter/9bf08d2957667be3cdba164221abe51c063e661403a1802e45d3ec3dd03bdd00"
      },
      "effectiveDateTime": "2020-01-21T10:54:00+00:00",
      "valueQuantity": {
        "value": 45.02391550332657,
        "unit": "U/L",
        "system": "http://unitsofmeasure.org",
        "code": "U/L"
      }
    },
    "request": {
      "method": "POST",
      "url": "Observation",
      "ifNoneExist": "identifier=https://mein.krankenhaus.de/fhir/NamingSystem/observationId|88ec493bea0be543258abce5970b882d8c650bc7f993fa8f54515461835a95fa"
    }
  }, {
    "fullUrl": "Observation/2bca2382d90b4298e581cb98bbc7be2668e9de32e89795b897c514db1197bbad",
    "resource": {
      "resourceType": "Observation",
      "meta": {
        "profile": [ "https://www.medizininformatik-initiative.de/fhir/core/modul-labor/StructureDefinition/ObservationLab" ]
      },
      "identifier": [ {
        "type": {
          "coding": [ {
            "system": "http://terminology.hl7.org/CodeSystem/v2-0203",
            "code": "OBI",
            "display": "Observation Instance Identifier"
          } ]
        },
        "system": "https://mein.krankenhaus.de/fhir/NamingSystem/observationId",
        "value": "569229a412f13c4aeba3136a2b0065e6b325e784d03f33928cff6b2e8de2fe3d",
        "assigner": {
          "reference": "Organization/3a4f3433bce81181bad2d8e0b8fafccf7dc800bc06f29be73dcb38b750a48f9a"
        }
      } ],
      "status": "final",
      "category": [ {
        "coding": [ {
          "system": "http://terminology.hl7.org/CodeSystem/observation-category",
          "code": "laboratory",
          "display": "Laboratory"
        }, {
          "system": "http://loinc.org",
          "code": "26436-6"
        } ]
      } ],
      "code": {
        "coding": [ {
          "system": "http://loinc.org",
          "code": "14805-6",
          "display": "lactate-dehydrogenase-in-serum-or-plasma-by-pyruvate-to-lactate-reaction"
        } ],
        "text": "ldh"
      },
      "subject": {
        "reference": "Patient/ed453467c56af402bc7ca7b52779dffc1fcbf4564e9c2e0b31171f1f311de03e"
      },
      "encounter": {
        "reference": "Encounter/9bf08d2957667be3cdba164221abe51c063e661403a1802e45d3ec3dd03bdd00"
      },
      "effectiveDateTime": "2020-01-21T10:54:00+00:00",
      "valueQuantity": {
        "value": 56.09245425934339,
        "unit": "U/L",
        "system": "http://unitsofmeasure.org",
        "code": "U/L"
      }
    },
    "request": {
      "method": "POST",
      "url": "Observation",
      "ifNoneExist": "identifier=https://mein.krankenhaus.de/fhir/NamingSystem/observationId|2bca2382d90b4298e581cb98bbc7be2668e9de32e89795b897c514db1197bbad"
    }
  }, {
    "fullUrl": "Observation/24fb3e50119f25a4a2a382126fbb99d764f2b983af77e18ac762627b4ec4d0ac",
    "resource": {
      "resourceType": "Observation",
      "meta": {
        "profile": [ "https://www.medizininformatik-initiative.de/fhir/core/modul-labor/StructureDefinition/ObservationLab" ]
      },
      "identifier": [ {
        "type": {
          "coding": [ {
            "system": "http://terminology.hl7.org/CodeSystem/v2-0203",
            "code": "OBI",
            "display": "Observation Instance Identifier"
          } ]
        },
        "system": "https://mein.krankenhaus.de/fhir/NamingSystem/observationId",
        "value": "ab6f05f7014115212696f2d81c1226925052465add6cd12b78b08ad4493aa0f3",
        "assigner": {
          "reference": "Organization/3a4f3433bce81181bad2d8e0b8fafccf7dc800bc06f29be73dcb38b750a48f9a"
        }
      } ],
      "status": "final",
      "category": [ {
        "coding": [ {
          "system": "http://terminology.hl7.org/CodeSystem/observation-category",
          "code": "laboratory",
          "display": "Laboratory"
        }, {
          "system": "http://loinc.org",
          "code": "26436-6"
        } ]
      } ],
      "code": {
        "coding": [ {
          "system": "http://loinc.org",
          "code": "30350-3",
          "display": "hemoglobin-in-venous-blood"
        } ],
        "text": "hamoglobin"
      },
      "subject": {
        "reference": "Patient/ed453467c56af402bc7ca7b52779dffc1fcbf4564e9c2e0b31171f1f311de03e"
      },
      "encounter": {
        "reference": "Encounter/9bf08d2957667be3cdba164221abe51c063e661403a1802e45d3ec3dd03bdd00"
      },
      "effectiveDateTime": "2020-01-21T10:54:00+00:00",
      "valueQuantity": {
        "value": 20.883340623922752,
        "unit": "g/L",
        "system": "http://unitsofmeasure.org",
        "code": "g/L"
      }
    },
    "request": {
      "method": "POST",
      "url": "Observation",
      "ifNoneExist": "identifier=https://mein.krankenhaus.de/fhir/NamingSystem/observationId|24fb3e50119f25a4a2a382126fbb99d764f2b983af77e18ac762627b4ec4d0ac"
    }
  }, {
    "fullUrl": "Observation/3a4fdf39f5ac7337cb996e73f21305504750033af28e4c34c845ddb325e9bc48",
    "resource": {
      "resourceType": "Observation",
      "meta": {
        "profile": [ "https://www.medizininformatik-initiative.de/fhir/core/modul-labor/StructureDefinition/ObservationLab" ]
      },
      "identifier": [ {
        "type": {
          "coding": [ {
            "system": "http://terminology.hl7.org/CodeSystem/v2-0203",
            "code": "OBI",
            "display": "Observation Instance Identifier"
          } ]
        },
        "system": "https://mein.krankenhaus.de/fhir/NamingSystem/observationId",
        "value": "054bee22593663030e3addb84da417c9145fc0e62a1550c2178c3d3d76f24306",
        "assigner": {
          "reference": "Organization/3a4f3433bce81181bad2d8e0b8fafccf7dc800bc06f29be73dcb38b750a48f9a"
        }
      } ],
      "status": "final",
      "category": [ {
        "coding": [ {
          "system": "http://terminology.hl7.org/CodeSystem/observation-category",
          "code": "laboratory",
          "display": "Laboratory"
        }, {
          "system": "http://loinc.org",
          "code": "26436-6"
        } ]
      } ],
      "code": {
        "coding": [ {
          "system": "http://loinc.org",
          "code": "38483-4",
          "display": "creatinine-in-blood"
        } ],
        "text": "kreatinin"
      },
      "subject": {
        "reference": "Patient/ed453467c56af402bc7ca7b52779dffc1fcbf4564e9c2e0b31171f1f311de03e"
      },
      "encounter": {
        "reference": "Encounter/9bf08d2957667be3cdba164221abe51c063e661403a1802e45d3ec3dd03bdd00"
      },
      "effectiveDateTime": "2020-01-21T10:54:00+00:00",
      "valueQuantity": {
        "value": 74.74692146768187,
        "unit": "mg/L",
        "system": "http://unitsofmeasure.org",
        "code": "mg/L"
      }
    },
    "request": {
      "method": "POST",
      "url": "Observation",
      "ifNoneExist": "identifier=https://mein.krankenhaus.de/fhir/NamingSystem/observationId|3a4fdf39f5ac7337cb996e73f21305504750033af28e4c34c845ddb325e9bc48"
    }
  }, {
    "fullUrl": "Observation/e622ae50b684a8b7e0e20609d5de400779cae9a1a7dfb57cf07033fb80dfcb39",
    "resource": {
      "resourceType": "Observation",
      "meta": {
        "profile": [ "https://www.medizininformatik-initiative.de/fhir/core/modul-labor/StructureDefinition/ObservationLab" ]
      },
      "identifier": [ {
        "type": {
          "coding": [ {
            "system": "http://terminology.hl7.org/CodeSystem/v2-0203",
            "code": "OBI",
            "display": "Observation Instance Identifier"
          } ]
        },
        "system": "https://mein.krankenhaus.de/fhir/NamingSystem/observationId",
        "value": "ef58ee0ef9b96686d1d437ad39c6a38d21e69c28a1b3c46144455ef3727437fd",
        "assigner": {
          "reference": "Organization/3a4f3433bce81181bad2d8e0b8fafccf7dc800bc06f29be73dcb38b750a48f9a"
        }
      } ],
      "status": "final",
      "category": [ {
        "coding": [ {
          "system": "http://terminology.hl7.org/CodeSystem/observation-category",
          "code": "laboratory",
          "display": "Laboratory"
        }, {
          "system": "http://loinc.org",
          "code": "26436-6"
        } ]
      } ],
      "code": {
        "coding": [ {
          "system": "http://loinc.org",
          "code": "14118-4",
          "display": "lactate-in-serum-or-plasma"
        } ],
        "text": "laktat"
      },
      "subject": {
        "reference": "Patient/ed453467c56af402bc7ca7b52779dffc1fcbf4564e9c2e0b31171f1f311de03e"
      },
      "encounter": {
        "reference": "Encounter/9bf08d2957667be3cdba164221abe51c063e661403a1802e45d3ec3dd03bdd00"
      },
      "effectiveDateTime": "2020-01-21T10:54:00+00:00",
      "valueQuantity": {
        "value": 2.4631902730962496,
        "unit": "mg/dL",
        "system": "http://unitsofmeasure.org",
        "code": "mg/dL"
      }
    },
    "request": {
      "method": "POST",
      "url": "Observation",
      "ifNoneExist": "identifier=https://mein.krankenhaus.de/fhir/NamingSystem/observationId|e622ae50b684a8b7e0e20609d5de400779cae9a1a7dfb57cf07033fb80dfcb39"
    }
  }, {
    "fullUrl": "Observation/69be1496392850b95a3221b8a5b8cb07cdb5134cdeda02a197c5051da6b34644",
    "resource": {
      "resourceType": "Observation",
      "meta": {
        "profile": [ "https://www.medizininformatik-initiative.de/fhir/core/modul-labor/StructureDefinition/ObservationLab" ]
      },
      "identifier": [ {
        "type": {
          "coding": [ {
            "system": "http://terminology.hl7.org/CodeSystem/v2-0203",
            "code": "OBI",
            "display": "Observation Instance Identifier"
          } ]
        },
        "system": "https://mein.krankenhaus.de/fhir/NamingSystem/observationId",
        "value": "c14141b02374a74f025357b233cd4aa0909f16cff3f5bec95f1595464d3f7c33",
        "assigner": {
          "reference": "Organization/3a4f3433bce81181bad2d8e0b8fafccf7dc800bc06f29be73dcb38b750a48f9a"
        }
      } ],
      "status": "final",
      "category": [ {
        "coding": [ {
          "system": "http://terminology.hl7.org/CodeSystem/observation-category",
          "code": "laboratory",
          "display": "Laboratory"
        }, {
          "system": "http://loinc.org",
          "code": "26436-6"
        } ]
      } ],
      "code": {
        "coding": [ {
          "system": "http://loinc.org",
          "code": "49498-9",
          "display": "leukocytes-in-blood-by-estimate"
        } ],
        "text": "leukozyten_absolut"
      },
      "subject": {
        "reference": "Patient/ed453467c56af402bc7ca7b52779dffc1fcbf4564e9c2e0b31171f1f311de03e"
      },
      "encounter": {
        "reference": "Encounter/9bf08d2957667be3cdba164221abe51c063e661403a1802e45d3ec3dd03bdd00"
      },
      "effectiveDateTime": "2020-01-21T10:54:00+00:00",
      "valueQuantity": {
        "value": 86.57662766419236,
        "unit": "10*3/uL",
        "system": "http://unitsofmeasure.org",
        "code": "10*3/uL"
      }
    },
    "request": {
      "method": "POST",
      "url": "Observation",
      "ifNoneExist": "identifier=https://mein.krankenhaus.de/fhir/NamingSystem/observationId|69be1496392850b95a3221b8a5b8cb07cdb5134cdeda02a197c5051da6b34644"
    }
  }, {
    "fullUrl": "Observation/1c65c587383bdb7a588c35b785bd3abfd6d70f9eecaca2ca60157b4a141482b7",
    "resource": {
      "resourceType": "Observation",
      "meta": {
        "profile": [ "https://www.medizininformatik-initiative.de/fhir/core/modul-labor/StructureDefinition/ObservationLab" ]
      },
      "identifier": [ {
        "type": {
          "coding": [ {
            "system": "http://terminology.hl7.org/CodeSystem/v2-0203",
            "code": "OBI",
            "display": "Observation Instance Identifier"
          } ]
        },
        "system": "https://mein.krankenhaus.de/fhir/NamingSystem/observationId",
        "value": "139c6a2747b81c024a42c0f2839f14db83c5505bce55f62054a2aa5e3cd1f2eb",
        "assigner": {
          "reference": "Organization/3a4f3433bce81181bad2d8e0b8fafccf7dc800bc06f29be73dcb38b750a48f9a"
        }
      } ],
      "status": "final",
      "category": [ {
        "coding": [ {
          "system": "http://terminology.hl7.org/CodeSystem/observation-category",
          "code": "laboratory",
          "display": "Laboratory"
        }, {
          "system": "http://loinc.org",
          "code": "26436-6"
        } ]
      } ],
      "code": {
        "coding": [ {
          "system": "http://loinc.org",
          "code": "732-8",
          "display": "lymphocytes-in-blood-by-manual-count"
        } ],
        "text": "lymphozyten_absolut"
      },
      "subject": {
        "reference": "Patient/ed453467c56af402bc7ca7b52779dffc1fcbf4564e9c2e0b31171f1f311de03e"
      },
      "encounter": {
        "reference": "Encounter/9bf08d2957667be3cdba164221abe51c063e661403a1802e45d3ec3dd03bdd00"
      },
      "effectiveDateTime": "2020-01-21T10:54:00+00:00",
      "valueQuantity": {
        "value": 24.874057859791655,
        "unit": "10*3/uL",
        "system": "http://unitsofmeasure.org",
        "code": "10*3/uL"
      }
    },
    "request": {
      "method": "POST",
      "url": "Observation",
      "ifNoneExist": "identifier=https://mein.krankenhaus.de/fhir/NamingSystem/observationId|1c65c587383bdb7a588c35b785bd3abfd6d70f9eecaca2ca60157b4a141482b7"
    }
  }, {
    "fullUrl": "Observation/faaa1726ffebc1e8e6796ea875346b2af61939de39d5496d687836b674344717",
    "resource": {
      "resourceType": "Observation",
      "meta": {
        "profile": [ "https://www.medizininformatik-initiative.de/fhir/core/modul-labor/StructureDefinition/ObservationLab" ]
      },
      "identifier": [ {
        "type": {
          "coding": [ {
            "system": "http://terminology.hl7.org/CodeSystem/v2-0203",
            "code": "OBI",
            "display": "Observation Instance Identifier"
          } ]
        },
        "system": "https://mein.krankenhaus.de/fhir/NamingSystem/observationId",
        "value": "6b50a4c5b6bb2bcc47a1586cc3c29bc7ea0eee0049af159b7e7b41ae8bfa9cc5",
        "assigner": {
          "reference": "Organization/3a4f3433bce81181bad2d8e0b8fafccf7dc800bc06f29be73dcb38b750a48f9a"
        }
      } ],
      "status": "final",
      "category": [ {
        "coding": [ {
          "system": "http://terminology.hl7.org/CodeSystem/observation-category",
          "code": "laboratory",
          "display": "Laboratory"
        }, {
          "system": "http://loinc.org",
          "code": "26436-6"
        } ]
      } ],
      "code": {
        "coding": [ {
          "system": "http://loinc.org",
          "code": "26499-4",
          "display": "neutrophils-in-blood"
        } ],
        "text": "neutrophile_absolut"
      },
      "subject": {
        "reference": "Patient/ed453467c56af402bc7ca7b52779dffc1fcbf4564e9c2e0b31171f1f311de03e"
      },
      "encounter": {
        "reference": "Encounter/9bf08d2957667be3cdba164221abe51c063e661403a1802e45d3ec3dd03bdd00"
      },
      "effectiveDateTime": "2020-01-21T10:54:00+00:00",
      "valueQuantity": {
        "value": 55.20398837728524,
        "unit": "10*3/uL",
        "system": "http://unitsofmeasure.org",
        "code": "10*3/uL"
      }
    },
    "request": {
      "method": "POST",
      "url": "Observation",
      "ifNoneExist": "identifier=https://mein.krankenhaus.de/fhir/NamingSystem/observationId|faaa1726ffebc1e8e6796ea875346b2af61939de39d5496d687836b674344717"
    }
  }, {
    "fullUrl": "Observation/fa53ab8daf0ced3d1ae62cba32005b1b745991d6ebefd0c8366107ac3f6672be",
    "resource": {
      "resourceType": "Observation",
      "meta": {
        "profile": [ "https://www.medizininformatik-initiative.de/fhir/core/modul-labor/StructureDefinition/ObservationLab" ]
      },
      "identifier": [ {
        "type": {
          "coding": [ {
            "system": "http://terminology.hl7.org/CodeSystem/v2-0203",
            "code": "OBI",
            "display": "Observation Instance Identifier"
          } ]
        },
        "system": "https://mein.krankenhaus.de/fhir/NamingSystem/observationId",
        "value": "3a14aef7d53088e818d687e9994cfc9b4104ec78aae12c80452dd98b25fac670",
        "assigner": {
          "reference": "Organization/3a4f3433bce81181bad2d8e0b8fafccf7dc800bc06f29be73dcb38b750a48f9a"
        }
      } ],
      "status": "final",
      "category": [ {
        "coding": [ {
          "system": "http://terminology.hl7.org/CodeSystem/observation-category",
          "code": "laboratory",
          "display": "Laboratory"
        }, {
          "system": "http://loinc.org",
          "code": "26436-6"
        } ]
      } ],
      "code": {
        "coding": [ {
          "system": "http://loinc.org",
          "code": "16631-4",
          "display": "aptt-in-blood-by-coagulation-11-saline"
        } ],
        "text": "ptt"
      },
      "subject": {
        "reference": "Patient/ed453467c56af402bc7ca7b52779dffc1fcbf4564e9c2e0b31171f1f311de03e"
      },
      "encounter": {
        "reference": "Encounter/9bf08d2957667be3cdba164221abe51c063e661403a1802e45d3ec3dd03bdd00"
      },
      "effectiveDateTime": "2020-01-21T10:54:00+00:00",
      "valueQuantity": {
        "value": 29.79841565881156,
        "unit": "s",
        "system": "http://unitsofmeasure.org",
        "code": "s"
      }
    },
    "request": {
      "method": "POST",
      "url": "Observation",
      "ifNoneExist": "identifier=https://mein.krankenhaus.de/fhir/NamingSystem/observationId|fa53ab8daf0ced3d1ae62cba32005b1b745991d6ebefd0c8366107ac3f6672be"
    }
  }, {
    "fullUrl": "Observation/d29c212f6b29703441613cf9ea95db6486a859799f1d9c5e63b50c664412b3eb",
    "resource": {
      "resourceType": "Observation",
      "meta": {
        "profile": [ "https://www.medizininformatik-initiative.de/fhir/core/modul-labor/StructureDefinition/ObservationLab" ]
      },
      "identifier": [ {
        "type": {
          "coding": [ {
            "system": "http://terminology.hl7.org/CodeSystem/v2-0203",
            "code": "OBI",
            "display": "Observation Instance Identifier"
          } ]
        },
        "system": "https://mein.krankenhaus.de/fhir/NamingSystem/observationId",
        "value": "3cd39a4dedfd41b6971b1e95e1d01cd3c591f2ca0fe133e64a7be47ac22967e8",
        "assigner": {
          "reference": "Organization/3a4f3433bce81181bad2d8e0b8fafccf7dc800bc06f29be73dcb38b750a48f9a"
        }
      } ],
      "status": "final",
      "category": [ {
        "coding": [ {
          "system": "http://terminology.hl7.org/CodeSystem/observation-category",
          "code": "laboratory",
          "display": "Laboratory"
        }, {
          "system": "http://loinc.org",
          "code": "26436-6"
        } ]
      } ],
      "code": {
        "coding": [ {
          "system": "http://loinc.org",
          "code": "49497-1",
          "display": "platelets-in-blood-by-estimate"
        } ],
        "text": "thrombozyten_absolut"
      },
      "subject": {
        "reference": "Patient/ed453467c56af402bc7ca7b52779dffc1fcbf4564e9c2e0b31171f1f311de03e"
      },
      "encounter": {
        "reference": "Encounter/9bf08d2957667be3cdba164221abe51c063e661403a1802e45d3ec3dd03bdd00"
      },
      "effectiveDateTime": "2020-01-21T10:54:00+00:00",
      "valueQuantity": {
        "value": 93.38274303304476,
        "unit": "10*3/uL",
        "system": "http://unitsofmeasure.org",
        "code": "10*3/uL"
      }
    },
    "request": {
      "method": "POST",
      "url": "Observation",
      "ifNoneExist": "identifier=https://mein.krankenhaus.de/fhir/NamingSystem/observationId|d29c212f6b29703441613cf9ea95db6486a859799f1d9c5e63b50c664412b3eb"
    }
  }, {
    "fullUrl": "Observation/42e1c48324e528d40388a85786d75b050107aa43f7e41edde386c3a805496aa9",
    "resource": {
      "resourceType": "Observation",
      "meta": {
        "profile": [ "https://www.medizininformatik-initiative.de/fhir/core/modul-labor/StructureDefinition/ObservationLab" ]
      },
      "identifier": [ {
        "type": {
          "coding": [ {
            "system": "http://terminology.hl7.org/CodeSystem/v2-0203",
            "code": "OBI",
            "display": "Observation Instance Identifier"
          } ]
        },
        "system": "https://mein.krankenhaus.de/fhir/NamingSystem/observationId",
        "value": "fe03fab7b4e6ca6b3e129b27c48c2953a16c5d42a47a2633d39558dd3ff8f0cb",
        "assigner": {
          "reference": "Organization/3a4f3433bce81181bad2d8e0b8fafccf7dc800bc06f29be73dcb38b750a48f9a"
        }
      } ],
      "status": "final",
      "category": [ {
        "coding": [ {
          "system": "http://terminology.hl7.org/CodeSystem/observation-category",
          "code": "laboratory",
          "display": "Laboratory"
        }, {
          "system": "http://loinc.org",
          "code": "26436-6"
        } ]
      } ],
      "code": {
        "coding": [ {
          "system": "http://loinc.org",
          "code": "46418-0",
          "display": "inr-in-capillary-blood-by-coagulation-assay"
        } ],
        "text": "inr"
      },
      "subject": {
        "reference": "Patient/ed453467c56af402bc7ca7b52779dffc1fcbf4564e9c2e0b31171f1f311de03e"
      },
      "encounter": {
        "reference": "Encounter/9bf08d2957667be3cdba164221abe51c063e661403a1802e45d3ec3dd03bdd00"
      },
      "effectiveDateTime": "2020-01-21T10:54:00+00:00",
      "valueQuantity": {
        "value": 84.60397927997671,
        "unit": "{INR}",
        "system": "http://unitsofmeasure.org",
        "code": "{INR}"
      }
    },
    "request": {
      "method": "POST",
      "url": "Observation",
      "ifNoneExist": "identifier=https://mein.krankenhaus.de/fhir/NamingSystem/observationId|42e1c48324e528d40388a85786d75b050107aa43f7e41edde386c3a805496aa9"
    }
  }, {
    "fullUrl": "Observation/50c57e16c62f5b1ee7e8dfd696b304249a9ee308dc7270516a905792f2a92a9d",
    "resource": {
      "resourceType": "Observation",
      "meta": {
        "profile": [ "https://www.medizininformatik-initiative.de/fhir/core/modul-labor/StructureDefinition/ObservationLab" ]
      },
      "identifier": [ {
        "type": {
          "coding": [ {
            "system": "http://terminology.hl7.org/CodeSystem/v2-0203",
            "code": "OBI",
            "display": "Observation Instance Identifier"
          } ]
        },
        "system": "https://mein.krankenhaus.de/fhir/NamingSystem/observationId",
        "value": "21e7e868896659f474bd9ede5c112bccc6e66384d36e9ee11793ea4d64e7e16a",
        "assigner": {
          "reference": "Organization/3a4f3433bce81181bad2d8e0b8fafccf7dc800bc06f29be73dcb38b750a48f9a"
        }
      } ],
      "status": "final",
      "category": [ {
        "coding": [ {
          "system": "http://terminology.hl7.org/CodeSystem/observation-category",
          "code": "laboratory",
          "display": "Laboratory"
        }, {
          "system": "http://loinc.org",
          "code": "26436-6"
        } ]
      } ],
      "code": {
        "coding": [ {
          "system": "http://loinc.org",
          "code": "61151-7",
          "display": "albumin-in-serum-or-plasma-by-bromocresol-green-bcg-dye-binding-method"
        } ],
        "text": "serumalbumin"
      },
      "subject": {
        "reference": "Patient/ed453467c56af402bc7ca7b52779dffc1fcbf4564e9c2e0b31171f1f311de03e"
      },
      "encounter": {
        "reference": "Encounter/9bf08d2957667be3cdba164221abe51c063e661403a1802e45d3ec3dd03bdd00"
      },
      "effectiveDateTime": "2020-01-21T10:54:00+00:00",
      "valueQuantity": {
        "value": 55.50834795676721,
        "unit": "g/dL",
        "system": "http://unitsofmeasure.org",
        "code": "g/dL"
      }
    },
    "request": {
      "method": "POST",
      "url": "Observation",
      "ifNoneExist": "identifier=https://mein.krankenhaus.de/fhir/NamingSystem/observationId|50c57e16c62f5b1ee7e8dfd696b304249a9ee308dc7270516a905792f2a92a9d"
    }
  }, {
    "fullUrl": "Observation/464c942f7d934e6cd81df0c390960c0f471c7d5897456516dbc0225b166b1cd7",
    "resource": {
      "resourceType": "Observation",
      "meta": {
        "profile": [ "https://www.medizininformatik-initiative.de/fhir/core/modul-labor/StructureDefinition/ObservationLab" ]
      },
      "identifier": [ {
        "type": {
          "coding": [ {
            "system": "http://terminology.hl7.org/CodeSystem/v2-0203",
            "code": "OBI",
            "display": "Observation Instance Identifier"
          } ]
        },
        "system": "https://mein.krankenhaus.de/fhir/NamingSystem/observationId",
        "value": "ed30823ea43b6ab55f0ab0e0b3fe79d75b7d3c7db2ddbb965b868a397917041e",
        "assigner": {
          "reference": "Organization/3a4f3433bce81181bad2d8e0b8fafccf7dc800bc06f29be73dcb38b750a48f9a"
        }
      } ],
      "status": "final",
      "category": [ {
        "coding": [ {
          "system": "http://terminology.hl7.org/CodeSystem/observation-category",
          "code": "laboratory",
          "display": "Laboratory"
        }, {
          "system": "http://loinc.org",
          "code": "26436-6"
        } ]
      } ],
      "code": {
        "coding": [ {
          "system": "http://loinc.org",
          "code": "27812-7",
          "display": "antithrombin-ag-actual-normal-in-platelet-poor-plasma-by-immunoassay"
        } ],
        "text": "antithrombin_iii"
      },
      "subject": {
        "reference": "Patient/ed453467c56af402bc7ca7b52779dffc1fcbf4564e9c2e0b31171f1f311de03e"
      },
      "encounter": {
        "reference": "Encounter/9bf08d2957667be3cdba164221abe51c063e661403a1802e45d3ec3dd03bdd00"
      },
      "effectiveDateTime": "2020-01-21T10:54:00+00:00",
      "valueQuantity": {
        "value": 50.153973323764276,
        "unit": "%",
        "system": "http://unitsofmeasure.org",
        "code": "%"
      }
    },
    "request": {
      "method": "POST",
      "url": "Observation",
      "ifNoneExist": "identifier=https://mein.krankenhaus.de/fhir/NamingSystem/observationId|464c942f7d934e6cd81df0c390960c0f471c7d5897456516dbc0225b166b1cd7"
    }
  }, {
    "fullUrl": "Observation/9d4f118f7e6b63d5202d7dfb7ebb0375f59f1105c8a3ac1018ba62cfcb91ca6b",
    "resource": {
      "resourceType": "Observation",
      "meta": {
        "profile": [ "https://www.medizininformatik-initiative.de/fhir/core/modul-labor/StructureDefinition/ObservationLab" ]
      },
      "identifier": [ {
        "type": {
          "coding": [ {
            "system": "http://terminology.hl7.org/CodeSystem/v2-0203",
            "code": "OBI",
            "display": "Observation Instance Identifier"
          } ]
        },
        "system": "https://mein.krankenhaus.de/fhir/NamingSystem/observationId",
        "value": "3fd1d35785572eb6ea217c5590d76d472844e3bedb183ee3c1d9dc999ae3e07a",
        "assigner": {
          "reference": "Organization/3a4f3433bce81181bad2d8e0b8fafccf7dc800bc06f29be73dcb38b750a48f9a"
        }
      } ],
      "status": "final",
      "category": [ {
        "coding": [ {
          "system": "http://terminology.hl7.org/CodeSystem/observation-category",
          "code": "laboratory",
          "display": "Laboratory"
        }, {
          "system": "http://loinc.org",
          "code": "26436-6"
        } ]
      } ],
      "code": {
        "coding": [ {
          "system": "http://loinc.org",
          "code": "75241-0",
          "display": "procalcitonin-in-serum-or-plasma-by-immunoassay"
        } ],
        "text": "pct_procalcitonin"
      },
      "subject": {
        "reference": "Patient/ed453467c56af402bc7ca7b52779dffc1fcbf4564e9c2e0b31171f1f311de03e"
      },
      "encounter": {
        "reference": "Encounter/9bf08d2957667be3cdba164221abe51c063e661403a1802e45d3ec3dd03bdd00"
      },
      "effectiveDateTime": "2020-01-21T10:54:00+00:00",
      "valueQuantity": {
        "value": 89.0377625256223,
        "unit": "ng/mL",
        "system": "http://unitsofmeasure.org",
        "code": "ng/mL"
      }
    },
    "request": {
      "method": "POST",
      "url": "Observation",
      "ifNoneExist": "identifier=https://mein.krankenhaus.de/fhir/NamingSystem/observationId|9d4f118f7e6b63d5202d7dfb7ebb0375f59f1105c8a3ac1018ba62cfcb91ca6b"
    }
  }, {
    "fullUrl": "Observation/a4860cd8cbe76a8eb808b2bb49263638a814e42226fdd11d5127f0d8b4858886",
    "resource": {
      "resourceType": "Observation",
      "meta": {
        "profile": [ "https://www.medizininformatik-initiative.de/fhir/core/modul-labor/StructureDefinition/ObservationLab" ]
      },
      "identifier": [ {
        "type": {
          "coding": [ {
            "system": "http://terminology.hl7.org/CodeSystem/v2-0203",
            "code": "OBI",
            "display": "Observation Instance Identifier"
          } ]
        },
        "system": "https://mein.krankenhaus.de/fhir/NamingSystem/observationId",
        "value": "ede518ce0ccc08e3ab634017221412318d1fdd478cf7dc9c319d212b352e84f6",
        "assigner": {
          "reference": "Organization/3a4f3433bce81181bad2d8e0b8fafccf7dc800bc06f29be73dcb38b750a48f9a"
        }
      } ],
      "status": "final",
      "category": [ {
        "coding": [ {
          "system": "http://terminology.hl7.org/CodeSystem/observation-category",
          "code": "laboratory",
          "display": "Laboratory"
        }, {
          "system": "http://loinc.org",
          "code": "26436-6"
        } ]
      } ],
      "code": {
        "coding": [ {
          "system": "http://loinc.org",
          "code": "49919-4",
          "display": "interleukin-6-in-cerebral-spinal-fluid"
        } ],
        "text": "il6_interleukin_6"
      },
      "subject": {
        "reference": "Patient/ed453467c56af402bc7ca7b52779dffc1fcbf4564e9c2e0b31171f1f311de03e"
      },
      "encounter": {
        "reference": "Encounter/9bf08d2957667be3cdba164221abe51c063e661403a1802e45d3ec3dd03bdd00"
      },
      "effectiveDateTime": "2020-01-21T10:54:00+00:00",
      "valueQuantity": {
        "value": 85.21113020586361,
        "unit": "pg/mL",
        "system": "http://unitsofmeasure.org",
        "code": "pg/mL"
      }
    },
    "request": {
      "method": "POST",
      "url": "Observation",
      "ifNoneExist": "identifier=https://mein.krankenhaus.de/fhir/NamingSystem/observationId|a4860cd8cbe76a8eb808b2bb49263638a814e42226fdd11d5127f0d8b4858886"
    }
  }, {
    "fullUrl": "Observation/51c84d1900eb1bdb4b40d3700df3452bf2e0582fa3e33616fabd428d0e62047e",
    "resource": {
      "resourceType": "Observation",
      "meta": {
        "profile": [ "https://www.medizininformatik-initiative.de/fhir/core/modul-labor/StructureDefinition/ObservationLab" ]
      },
      "identifier": [ {
        "type": {
          "coding": [ {
            "system": "http://terminology.hl7.org/CodeSystem/v2-0203",
            "code": "OBI",
            "display": "Observation Instance Identifier"
          } ]
        },
        "system": "https://mein.krankenhaus.de/fhir/NamingSystem/observationId",
        "value": "e3af6b543e8349d4cdbfd9ca988811ae98bcdb7cd80d0cf50c7a6b555ff95417",
        "assigner": {
          "reference": "Organization/3a4f3433bce81181bad2d8e0b8fafccf7dc800bc06f29be73dcb38b750a48f9a"
        }
      } ],
      "status": "final",
      "category": [ {
        "coding": [ {
          "system": "http://terminology.hl7.org/CodeSystem/observation-category",
          "code": "laboratory",
          "display": "Laboratory"
        }, {
          "system": "http://loinc.org",
          "code": "26436-6"
        } ]
      } ],
      "code": {
        "coding": [ {
          "system": "http://loinc.org",
          "code": "33762-6",
          "display": "natriuretic-peptide.b-prohormone-n-terminal-in-serum-or-plasma"
        } ],
        "text": "ntprobnp"
      },
      "subject": {
        "reference": "Patient/ed453467c56af402bc7ca7b52779dffc1fcbf4564e9c2e0b31171f1f311de03e"
      },
      "encounter": {
        "reference": "Encounter/9bf08d2957667be3cdba164221abe51c063e661403a1802e45d3ec3dd03bdd00"
      },
      "effectiveDateTime": "2020-01-21T10:54:00+00:00",
      "valueQuantity": {
        "value": 59.585623173841384,
        "unit": "pg/mL",
        "system": "http://unitsofmeasure.org",
        "code": "pg/mL"
      }
    },
    "request": {
      "method": "POST",
      "url": "Observation",
      "ifNoneExist": "identifier=https://mein.krankenhaus.de/fhir/NamingSystem/observationId|51c84d1900eb1bdb4b40d3700df3452bf2e0582fa3e33616fabd428d0e62047e"
    }
  }, {
    "fullUrl": "Observation/d7e9bbb6f29c6537ed2d70cdc279d7861dbcaf8dc1b43c9b4b88efcf4e7d1516",
    "resource": {
      "resourceType": "Observation",
      "meta": {
        "profile": [ "https://www.medizininformatik-initiative.de/fhir/core/modul-labor/StructureDefinition/ObservationLab" ]
      },
      "identifier": [ {
        "type": {
          "coding": [ {
            "system": "http://terminology.hl7.org/CodeSystem/v2-0203",
            "code": "OBI",
            "display": "Observation Instance Identifier"
          } ]
        },
        "system": "https://mein.krankenhaus.de/fhir/NamingSystem/observationId",
        "value": "1f5f76eb55482caef7989bee6cff85c7dd7c8ea5fd837084b75bfd60bf341d4c",
        "assigner": {
          "reference": "Organization/3a4f3433bce81181bad2d8e0b8fafccf7dc800bc06f29be73dcb38b750a48f9a"
        }
      } ],
      "status": "final",
      "category": [ {
        "coding": [ {
          "system": "http://terminology.hl7.org/CodeSystem/observation-category",
          "code": "laboratory",
          "display": "Laboratory"
        }, {
          "system": "http://loinc.org",
          "code": "26436-6"
        } ]
      } ],
      "code": {
        "coding": [ {
          "system": "http://loinc.org",
          "code": "3255-7",
          "display": "fibrinogen-in-platelet-poor-plasma-by-coagulation-assay"
        } ],
        "text": "fibrinogen"
      },
      "subject": {
        "reference": "Patient/ed453467c56af402bc7ca7b52779dffc1fcbf4564e9c2e0b31171f1f311de03e"
      },
      "encounter": {
        "reference": "Encounter/9bf08d2957667be3cdba164221abe51c063e661403a1802e45d3ec3dd03bdd00"
      },
      "effectiveDateTime": "2020-01-21T10:54:00+00:00",
      "valueQuantity": {
        "value": 55.288540585450676,
        "unit": "g/L",
        "system": "http://unitsofmeasure.org",
        "code": "g/L"
      }
    },
    "request": {
      "method": "POST",
      "url": "Observation",
      "ifNoneExist": "identifier=https://mein.krankenhaus.de/fhir/NamingSystem/observationId|d7e9bbb6f29c6537ed2d70cdc279d7861dbcaf8dc1b43c9b4b88efcf4e7d1516"
    }
  }, {
    "fullUrl": "Observation/f2c30647fa00d51f96e52e1bef8b25ee8bed3a353dd54dcb0a4ab1d8d0d27513",
    "resource": {
      "resourceType": "Observation",
      "meta": {
        "profile": [ "https://www.netzwerk-universitaetsmedizin.de/fhir/StructureDefinition/sars-cov-2-rt-pcr" ]
      },
      "identifier": [ {
        "type": {
          "coding": [ {
            "system": "http://terminology.hl7.org/CodeSystem/v2-0203",
            "code": "OBI",
            "display": "Observation Instance Identifier"
          } ]
        },
        "system": "https://mein.krankenhaus.de/fhir/NamingSystem/observationId",
        "value": "20e33d0023bbc741eeb3f7d066e7455f310ab6749b37dce3ccdcf45ca6badc62",
        "assigner": {
          "reference": "Organization/3a4f3433bce81181bad2d8e0b8fafccf7dc800bc06f29be73dcb38b750a48f9a"
        }
      } ],
      "status": "final",
      "category": [ {
        "coding": [ {
          "system": "http://terminology.hl7.org/CodeSystem/observation-category",
          "code": "laboratory",
          "display": "Laboratory"
        }, {
          "system": "http://loinc.org",
          "code": "26436-6"
        } ]
      } ],
      "code": {
        "coding": [ {
          "system": "http://loinc.org",
          "code": "94500-6",
          "display": "sars-cov-2-covid-19-rna-in-respiratory-specimen-by-naa-with-probe-detection"
        } ],
        "text": "SARS-CoV-2-RNA (PCR)"
      },
      "subject": {
        "reference": "Patient/ed453467c56af402bc7ca7b52779dffc1fcbf4564e9c2e0b31171f1f311de03e"
      },
      "encounter": {
        "reference": "Encounter/9bf08d2957667be3cdba164221abe51c063e661403a1802e45d3ec3dd03bdd00"
      },
      "effectiveDateTime": "2020-01-21T10:54:00+00:00",
      "valueCodeableConcept": {
        "coding": [ {
          "system": "http://snomed.info/sct",
          "code": "419984006",
          "display": "Inconclusive (qualifier value)"
        } ],
        "text": "SARS-CoV-2-RNA nicht eindeutig"
      }
    },
    "request": {
      "method": "POST",
      "url": "Observation",
      "ifNoneExist": "identifier=https://mein.krankenhaus.de/fhir/NamingSystem/observationId|f2c30647fa00d51f96e52e1bef8b25ee8bed3a353dd54dcb0a4ab1d8d0d27513"
    }
  }, {
    "fullUrl": "Observation/0377c502c1dd5b54ce4b6eb740b6ec924cfafbb11b553a2df20bda6a1c4217d1",
    "resource": {
      "resourceType": "Observation",
      "meta": {
        "profile": [ "https://www.netzwerk-universitaetsmedizin.de/fhir/StructureDefinition/sars-cov-2-ab-pnl-ser-pl-ia" ]
      },
      "identifier": [ {
        "type": {
          "coding": [ {
            "system": "http://terminology.hl7.org/CodeSystem/v2-0203",
            "code": "OBI",
            "display": "Observation Instance Identifier"
          } ]
        },
        "system": "https://mein.krankenhaus.de/fhir/NamingSystem/observationId",
        "value": "0fcf84a517e33446aee59cca2d2798b57b6c33b06ff7f668a6eeab635baf1a33",
        "assigner": {
          "reference": "Organization/3a4f3433bce81181bad2d8e0b8fafccf7dc800bc06f29be73dcb38b750a48f9a"
        }
      } ],
      "status": "final",
      "category": [ {
        "coding": [ {
          "system": "http://terminology.hl7.org/CodeSystem/observation-category",
          "code": "laboratory",
          "display": "Laboratory"
        }, {
          "system": "http://loinc.org",
          "code": "26436-6"
        } ]
      } ],
      "code": {
        "coding": [ {
          "system": "http://loinc.org",
          "code": "94504-8"
        } ],
        "text": "sarsco_v2_covid19_ab_pnl"
      },
      "subject": {
        "reference": "Patient/ed453467c56af402bc7ca7b52779dffc1fcbf4564e9c2e0b31171f1f311de03e"
      },
      "encounter": {
        "reference": "Encounter/9bf08d2957667be3cdba164221abe51c063e661403a1802e45d3ec3dd03bdd00"
      },
      "effectiveDateTime": "2020-01-21T10:54:00+00:00",
      "hasMember": [ {
        "reference": "Observation/1b5dce931f98145fb400b0155c0a3346d12455f1ec863c8a6666891ba35e9f7b"
      }, {
        "reference": "Observation/f42c65e87fe95e131a5986a6a9f763ce831649091d186081ca4de22007027838"
      }, {
        "reference": "Observation/70590f273fb372c3011e9d88968f656695e8d513a67120e046084927da0a2496"
      }, {
        "reference": "Observation/56891237aa706e87b29699d83707a637bcbe5af92f1e2fe15b1041d197c24cb6"
      }, {
        "reference": "Observation/b6c3bb4fbdb2cc2340b7421626cdb28f205d6cf6475ded06c39204c2cde82d3c"
      }, {
        "reference": "Observation/5aa3ec5c9b8c02da423f6adbe16f35c9574f4a65d86d57a7b7a664693da27aba"
      }, {
        "reference": "Observation/6d1beda7e086dca3be7692fa27cb7283588c67d3419c94bb576436e78571962a"
      }, {
        "reference": "Observation/67deebd98890601e918e3a08883710a72893b9cdeed950cd79fa7f2a4c604f31"
      } ]
    },
    "request": {
      "method": "POST",
      "url": "Observation",
      "ifNoneExist": "identifier=https://mein.krankenhaus.de/fhir/NamingSystem/observationId|0377c502c1dd5b54ce4b6eb740b6ec924cfafbb11b553a2df20bda6a1c4217d1"
    }
  }, {
    "fullUrl": "Observation/1b5dce931f98145fb400b0155c0a3346d12455f1ec863c8a6666891ba35e9f7b",
    "resource": {
      "resourceType": "Observation",
      "meta": {
        "profile": [ "https://www.netzwerk-universitaetsmedizin.de/fhir/StructureDefinition/sars-cov-2-ab-ser-pl-ql-ia" ]
      },
      "identifier": [ {
        "type": {
          "coding": [ {
            "system": "http://terminology.hl7.org/CodeSystem/v2-0203",
            "code": "OBI",
            "display": "Observation Instance Identifier"
          } ]
        },
        "system": "https://mein.krankenhaus.de/fhir/NamingSystem/observationId",
        "value": "810181a009be758152b6aa77966e6034a5a6c1c38fbd44f89d0ed2941f9bd95a",
        "assigner": {
          "reference": "Organization/3a4f3433bce81181bad2d8e0b8fafccf7dc800bc06f29be73dcb38b750a48f9a"
        }
      } ],
      "status": "final",
      "category": [ {
        "coding": [ {
          "system": "http://terminology.hl7.org/CodeSystem/observation-category",
          "code": "laboratory",
          "display": "Laboratory"
        }, {
          "system": "http://loinc.org",
          "code": "26436-6"
        } ]
      } ],
      "code": {
        "coding": [ {
          "system": "http://loinc.org",
          "code": "94762-2",
          "display": "sars-cov-2-covid-19-ab-in-serum-or-plasma-by-immunoassay"
        } ],
        "text": "sarsco_v2_covid19_ab_ia_ql"
      },
      "subject": {
        "reference": "Patient/ed453467c56af402bc7ca7b52779dffc1fcbf4564e9c2e0b31171f1f311de03e"
      },
      "encounter": {
        "reference": "Encounter/9bf08d2957667be3cdba164221abe51c063e661403a1802e45d3ec3dd03bdd00"
      },
      "effectiveDateTime": "2020-01-21T10:54:00+00:00",
      "valueCodeableConcept": {
        "coding": [ {
          "system": "http://snomed.info/sct",
          "code": "419984006"
        } ]
      }
    },
    "request": {
      "method": "POST",
      "url": "Observation",
      "ifNoneExist": "identifier=https://mein.krankenhaus.de/fhir/NamingSystem/observationId|1b5dce931f98145fb400b0155c0a3346d12455f1ec863c8a6666891ba35e9f7b"
    }
  }, {
    "fullUrl": "Observation/f42c65e87fe95e131a5986a6a9f763ce831649091d186081ca4de22007027838",
    "resource": {
      "resourceType": "Observation",
      "meta": {
        "profile": [ "https://www.netzwerk-universitaetsmedizin.de/fhir/StructureDefinition/sars-cov-2-ab-ser-pl-ia-acnc" ]
      },
      "identifier": [ {
        "type": {
          "coding": [ {
            "system": "http://terminology.hl7.org/CodeSystem/v2-0203",
            "code": "OBI",
            "display": "Observation Instance Identifier"
          } ]
        },
        "system": "https://mein.krankenhaus.de/fhir/NamingSystem/observationId",
        "value": "722e342400cca283971e7fbb44f24155a3ce90ebfe1d23bb093d523e45b7313c",
        "assigner": {
          "reference": "Organization/3a4f3433bce81181bad2d8e0b8fafccf7dc800bc06f29be73dcb38b750a48f9a"
        }
      } ],
      "status": "final",
      "category": [ {
        "coding": [ {
          "system": "http://terminology.hl7.org/CodeSystem/observation-category",
          "code": "laboratory",
          "display": "Laboratory"
        }, {
          "system": "http://loinc.org",
          "code": "26436-6"
        } ]
      } ],
      "code": {
        "coding": [ {
          "system": "http://loinc.org",
          "code": "94769-7",
          "display": "sars-cov-2-covid-19-ab-in-serum-or-plasma-by-immunoassay"
        } ],
        "text": "sarsco_v2_covid19_ab_ia_qn"
      },
      "subject": {
        "reference": "Patient/ed453467c56af402bc7ca7b52779dffc1fcbf4564e9c2e0b31171f1f311de03e"
      },
      "encounter": {
        "reference": "Encounter/9bf08d2957667be3cdba164221abe51c063e661403a1802e45d3ec3dd03bdd00"
      },
      "effectiveDateTime": "2020-01-21T10:54:00+00:00",
      "valueQuantity": {
        "value": 1.3923174284819373,
        "unit": "[IU]/mL",
        "system": "http://unitsofmeasure.org",
        "code": "[IU]/mL"
      }
    },
    "request": {
      "method": "POST",
      "url": "Observation",
      "ifNoneExist": "identifier=https://mein.krankenhaus.de/fhir/NamingSystem/observationId|f42c65e87fe95e131a5986a6a9f763ce831649091d186081ca4de22007027838"
    }
  }, {
    "fullUrl": "Observation/70590f273fb372c3011e9d88968f656695e8d513a67120e046084927da0a2496",
    "resource": {
      "resourceType": "Observation",
      "meta": {
        "profile": [ "https://www.netzwerk-universitaetsmedizin.de/fhir/StructureDefinition/sars-cov-2-iga-ser-pl-ql-ia" ]
      },
      "identifier": [ {
        "type": {
          "coding": [ {
            "system": "http://terminology.hl7.org/CodeSystem/v2-0203",
            "code": "OBI",
            "display": "Observation Instance Identifier"
          } ]
        },
        "system": "https://mein.krankenhaus.de/fhir/NamingSystem/observationId",
        "value": "73736392fd03724196566052ff55d83f84e146148271cc5dcbe7bc4a26b38c41",
        "assigner": {
          "reference": "Organization/3a4f3433bce81181bad2d8e0b8fafccf7dc800bc06f29be73dcb38b750a48f9a"
        }
      } ],
      "status": "final",
      "category": [ {
        "coding": [ {
          "system": "http://terminology.hl7.org/CodeSystem/observation-category",
          "code": "laboratory",
          "display": "Laboratory"
        }, {
          "system": "http://loinc.org",
          "code": "26436-6"
        } ]
      } ],
      "code": {
        "coding": [ {
          "system": "http://loinc.org",
          "code": "94562-6",
          "display": "sars-cov-2-covid-19-iga-ab-in-serum-or-plasma-by-immunoassay"
        } ],
        "text": "sarsco_v2_covid19_ig_a_ia_ql"
      },
      "subject": {
        "reference": "Patient/ed453467c56af402bc7ca7b52779dffc1fcbf4564e9c2e0b31171f1f311de03e"
      },
      "encounter": {
        "reference": "Encounter/9bf08d2957667be3cdba164221abe51c063e661403a1802e45d3ec3dd03bdd00"
      },
      "effectiveDateTime": "2020-01-21T10:54:00+00:00",
      "valueCodeableConcept": {
        "coding": [ {
          "system": "http://snomed.info/sct",
          "code": "260373001"
        } ]
      }
    },
    "request": {
      "method": "POST",
      "url": "Observation",
      "ifNoneExist": "identifier=https://mein.krankenhaus.de/fhir/NamingSystem/observationId|70590f273fb372c3011e9d88968f656695e8d513a67120e046084927da0a2496"
    }
  }, {
    "fullUrl": "Observation/56891237aa706e87b29699d83707a637bcbe5af92f1e2fe15b1041d197c24cb6",
    "resource": {
      "resourceType": "Observation",
      "meta": {
        "profile": [ "https://www.netzwerk-universitaetsmedizin.de/fhir/StructureDefinition/sars-cov-2-iga-ser-pl-ia-acnc" ]
      },
      "identifier": [ {
        "type": {
          "coding": [ {
            "system": "http://terminology.hl7.org/CodeSystem/v2-0203",
            "code": "OBI",
            "display": "Observation Instance Identifier"
          } ]
        },
        "system": "https://mein.krankenhaus.de/fhir/NamingSystem/observationId",
        "value": "3006495a0f346cc1320072c3e4a1b2e2348b68b6cec873b6167a2be2286feb2e",
        "assigner": {
          "reference": "Organization/3a4f3433bce81181bad2d8e0b8fafccf7dc800bc06f29be73dcb38b750a48f9a"
        }
      } ],
      "status": "final",
      "category": [ {
        "coding": [ {
          "system": "http://terminology.hl7.org/CodeSystem/observation-category",
          "code": "laboratory",
          "display": "Laboratory"
        }, {
          "system": "http://loinc.org",
          "code": "26436-6"
        } ]
      } ],
      "code": {
        "coding": [ {
          "system": "http://loinc.org",
          "code": "94720-0",
          "display": "sars-cov-2-covid-19-iga-ab-in-serum-or-plasma-by-immunoassay"
        } ],
        "text": "sarsco_v2_covid19_ig_a_ia_qn"
      },
      "subject": {
        "reference": "Patient/ed453467c56af402bc7ca7b52779dffc1fcbf4564e9c2e0b31171f1f311de03e"
      },
      "encounter": {
        "reference": "Encounter/9bf08d2957667be3cdba164221abe51c063e661403a1802e45d3ec3dd03bdd00"
      },
      "effectiveDateTime": "2020-01-21T10:54:00+00:00",
      "valueQuantity": {
        "value": 93.56787910198028,
        "unit": "[IU]/mL",
        "system": "http://unitsofmeasure.org",
        "code": "[IU]/mL"
      }
    },
    "request": {
      "method": "POST",
      "url": "Observation",
      "ifNoneExist": "identifier=https://mein.krankenhaus.de/fhir/NamingSystem/observationId|56891237aa706e87b29699d83707a637bcbe5af92f1e2fe15b1041d197c24cb6"
    }
  }, {
    "fullUrl": "Observation/b6c3bb4fbdb2cc2340b7421626cdb28f205d6cf6475ded06c39204c2cde82d3c",
    "resource": {
      "resourceType": "Observation",
      "meta": {
        "profile": [ "https://www.netzwerk-universitaetsmedizin.de/fhir/StructureDefinition/sars-cov-2-igg-ser-pl-ql-ia" ]
      },
      "identifier": [ {
        "type": {
          "coding": [ {
            "system": "http://terminology.hl7.org/CodeSystem/v2-0203",
            "code": "OBI",
            "display": "Observation Instance Identifier"
          } ]
        },
        "system": "https://mein.krankenhaus.de/fhir/NamingSystem/observationId",
        "value": "b6ef1777bd3c15000557163b0cc21589d40c78854f941db43e976f94de877ca9",
        "assigner": {
          "reference": "Organization/3a4f3433bce81181bad2d8e0b8fafccf7dc800bc06f29be73dcb38b750a48f9a"
        }
      } ],
      "status": "final",
      "category": [ {
        "coding": [ {
          "system": "http://terminology.hl7.org/CodeSystem/observation-category",
          "code": "laboratory",
          "display": "Laboratory"
        }, {
          "system": "http://loinc.org",
          "code": "26436-6"
        } ]
      } ],
      "code": {
        "coding": [ {
          "system": "http://loinc.org",
          "code": "94563-4",
          "display": "sars-cov-2-covid-19-igg-ab-in-serum-or-plasma-by-immunoassay"
        } ],
        "text": "sarsco_v2_covid19_ig_g_ia_ql"
      },
      "subject": {
        "reference": "Patient/ed453467c56af402bc7ca7b52779dffc1fcbf4564e9c2e0b31171f1f311de03e"
      },
      "encounter": {
        "reference": "Encounter/9bf08d2957667be3cdba164221abe51c063e661403a1802e45d3ec3dd03bdd00"
      },
      "effectiveDateTime": "2020-01-21T10:54:00+00:00",
      "valueCodeableConcept": {
        "coding": [ {
          "system": "http://snomed.info/sct",
          "code": "260415000"
        } ]
      }
    },
    "request": {
      "method": "POST",
      "url": "Observation",
      "ifNoneExist": "identifier=https://mein.krankenhaus.de/fhir/NamingSystem/observationId|b6c3bb4fbdb2cc2340b7421626cdb28f205d6cf6475ded06c39204c2cde82d3c"
    }
  }, {
    "fullUrl": "Observation/5aa3ec5c9b8c02da423f6adbe16f35c9574f4a65d86d57a7b7a664693da27aba",
    "resource": {
      "resourceType": "Observation",
      "meta": {
        "profile": [ "https://www.netzwerk-universitaetsmedizin.de/fhir/StructureDefinition/sars-cov-2-igg-ser-pl-ia-acnc" ]
      },
      "identifier": [ {
        "type": {
          "coding": [ {
            "system": "http://terminology.hl7.org/CodeSystem/v2-0203",
            "code": "OBI",
            "display": "Observation Instance Identifier"
          } ]
        },
        "system": "https://mein.krankenhaus.de/fhir/NamingSystem/observationId",
        "value": "693f7a8fc3ba42fa9acf9f5543e332791eb61b10753b65549f08c133341676a8",
        "assigner": {
          "reference": "Organization/3a4f3433bce81181bad2d8e0b8fafccf7dc800bc06f29be73dcb38b750a48f9a"
        }
      } ],
      "status": "final",
      "category": [ {
        "coding": [ {
          "system": "http://terminology.hl7.org/CodeSystem/observation-category",
          "code": "laboratory",
          "display": "Laboratory"
        }, {
          "system": "http://loinc.org",
          "code": "26436-6"
        } ]
      } ],
      "code": {
        "coding": [ {
          "system": "http://loinc.org",
          "code": "94505-5",
          "display": "sars-cov-2-covid-19-igg-ab-in-serum-or-plasma-by-immunoassay"
        } ],
        "text": "sarsco_v2_covid19_ig_g_ia_qn"
      },
      "subject": {
        "reference": "Patient/ed453467c56af402bc7ca7b52779dffc1fcbf4564e9c2e0b31171f1f311de03e"
      },
      "encounter": {
        "reference": "Encounter/9bf08d2957667be3cdba164221abe51c063e661403a1802e45d3ec3dd03bdd00"
      },
      "effectiveDateTime": "2020-01-21T10:54:00+00:00",
      "valueQuantity": {
        "value": 2.163121609040586,
        "unit": "[arb'U]/mL",
        "system": "http://unitsofmeasure.org",
        "code": "[arb'U]/mL"
      }
    },
    "request": {
      "method": "POST",
      "url": "Observation",
      "ifNoneExist": "identifier=https://mein.krankenhaus.de/fhir/NamingSystem/observationId|5aa3ec5c9b8c02da423f6adbe16f35c9574f4a65d86d57a7b7a664693da27aba"
    }
  }, {
    "fullUrl": "Observation/6d1beda7e086dca3be7692fa27cb7283588c67d3419c94bb576436e78571962a",
    "resource": {
      "resourceType": "Observation",
      "meta": {
        "profile": [ "https://www.netzwerk-universitaetsmedizin.de/fhir/StructureDefinition/sars-cov-2-igm-ser-pl-ql-ia" ]
      },
      "identifier": [ {
        "type": {
          "coding": [ {
            "system": "http://terminology.hl7.org/CodeSystem/v2-0203",
            "code": "OBI",
            "display": "Observation Instance Identifier"
          } ]
        },
        "system": "https://mein.krankenhaus.de/fhir/NamingSystem/observationId",
        "value": "05b2739b57ddc2a53cd6e1c8f1b1ade956dbb1bfdbe2d7c51a11779ca742ea48",
        "assigner": {
          "reference": "Organization/3a4f3433bce81181bad2d8e0b8fafccf7dc800bc06f29be73dcb38b750a48f9a"
        }
      } ],
      "status": "final",
      "category": [ {
        "coding": [ {
          "system": "http://terminology.hl7.org/CodeSystem/observation-category",
          "code": "laboratory",
          "display": "Laboratory"
        }, {
          "system": "http://loinc.org",
          "code": "26436-6"
        } ]
      } ],
      "code": {
        "coding": [ {
          "system": "http://loinc.org",
          "code": "94564-2",
          "display": "sars-cov-2-covid-19-igm-ab-in-serum-or-plasma-by-immunoassay"
        } ],
        "text": "sarsco_v2_covid19_ig_m_ia_ql"
      },
      "subject": {
        "reference": "Patient/ed453467c56af402bc7ca7b52779dffc1fcbf4564e9c2e0b31171f1f311de03e"
      },
      "encounter": {
        "reference": "Encounter/9bf08d2957667be3cdba164221abe51c063e661403a1802e45d3ec3dd03bdd00"
      },
      "effectiveDateTime": "2020-01-21T10:54:00+00:00",
      "valueCodeableConcept": {
        "coding": [ {
          "system": "http://snomed.info/sct",
          "code": "260373001"
        } ]
      }
    },
    "request": {
      "method": "POST",
      "url": "Observation",
      "ifNoneExist": "identifier=https://mein.krankenhaus.de/fhir/NamingSystem/observationId|6d1beda7e086dca3be7692fa27cb7283588c67d3419c94bb576436e78571962a"
    }
  }, {
    "fullUrl": "Observation/67deebd98890601e918e3a08883710a72893b9cdeed950cd79fa7f2a4c604f31",
    "resource": {
      "resourceType": "Observation",
      "meta": {
        "profile": [ "https://www.netzwerk-universitaetsmedizin.de/fhir/StructureDefinition/sars-cov-2-igm-ser-pl-ia-acnc" ]
      },
      "identifier": [ {
        "type": {
          "coding": [ {
            "system": "http://terminology.hl7.org/CodeSystem/v2-0203",
            "code": "OBI",
            "display": "Observation Instance Identifier"
          } ]
        },
        "system": "https://mein.krankenhaus.de/fhir/NamingSystem/observationId",
        "value": "2d5a7435d1a9fa8b44898d4de5d1440d7c3d480f38f820143c645890e778b8ba",
        "assigner": {
          "reference": "Organization/3a4f3433bce81181bad2d8e0b8fafccf7dc800bc06f29be73dcb38b750a48f9a"
        }
      } ],
      "status": "final",
      "category": [ {
        "coding": [ {
          "system": "http://terminology.hl7.org/CodeSystem/observation-category",
          "code": "laboratory",
          "display": "Laboratory"
        }, {
          "system": "http://loinc.org",
          "code": "26436-6"
        } ]
      } ],
      "code": {
        "coding": [ {
          "system": "http://loinc.org",
          "code": "94506-3",
          "display": "sars-cov-2-covid-19-igm-ab-in-serum-or-plasma-by-immunoassay"
        } ],
        "text": "sarsco_v2_covid19_ig_m_ia_qn"
      },
      "subject": {
        "reference": "Patient/ed453467c56af402bc7ca7b52779dffc1fcbf4564e9c2e0b31171f1f311de03e"
      },
      "encounter": {
        "reference": "Encounter/9bf08d2957667be3cdba164221abe51c063e661403a1802e45d3ec3dd03bdd00"
      },
      "effectiveDateTime": "2020-01-21T10:54:00+00:00",
      "valueQuantity": {
        "value": 92.50317320924044,
        "unit": "[arb'U]/mL",
        "system": "http://unitsofmeasure.org",
        "code": "[arb'U]/mL"
      }
    },
    "request": {
      "method": "POST",
      "url": "Observation",
      "ifNoneExist": "identifier=https://mein.krankenhaus.de/fhir/NamingSystem/observationId|67deebd98890601e918e3a08883710a72893b9cdeed950cd79fa7f2a4c604f31"
    }
  }, {
    "fullUrl": "Observation/212eb218f23a7c09125891b0eec9243f4098201081926e94da18750c203eb2bb",
    "resource": {
      "resourceType": "Observation",
      "meta": {
        "profile": [ "https://www.netzwerk-universitaetsmedizin.de/fhir/StructureDefinition/carbon-dioxide-partial-pressure" ]
      },
      "identifier": [ {
        "type": {
          "coding": [ {
            "system": "http://terminology.hl7.org/CodeSystem/v2-0203",
            "code": "OBI",
            "display": "Observation Instance Identifier"
          } ]
        },
        "system": "https://mein.krankenhaus.de/fhir/NamingSystem/observationId",
        "value": "934c68070071f0833d2393e6310b86893a6a2d892e4dcc57a2b2d4e06793ac95",
        "assigner": {
          "reference": "Organization/3a4f3433bce81181bad2d8e0b8fafccf7dc800bc06f29be73dcb38b750a48f9a"
        }
      } ],
      "status": "final",
      "category": [ {
        "coding": [ {
          "system": "http://terminology.hl7.org/CodeSystem/observation-category",
          "code": "laboratory",
          "display": "Laboratory"
        }, {
          "system": "http://loinc.org",
          "code": "26436-6",
          "display": "Laboratory studies (set)"
        }, {
          "system": "http://loinc.org",
          "code": "18767-4",
          "display": "Blood gas studies (set)"
        } ]
      } ],
      "code": {
        "coding": [ {
          "system": "http://loinc.org",
          "code": "11557-6"
        } ],
        "text": "Carbon dioxide [Partial pressure] in blood"
      },
      "subject": {
        "reference": "Patient/ed453467c56af402bc7ca7b52779dffc1fcbf4564e9c2e0b31171f1f311de03e"
      },
      "encounter": {
        "reference": "Encounter/9bf08d2957667be3cdba164221abe51c063e661403a1802e45d3ec3dd03bdd00"
      },
      "effectiveDateTime": "2020-09-16T20:39:00+00:00",
      "valueQuantity": {
        "value": 74,
        "unit": "mmHg",
        "system": "http://unitsofmeasure.org",
        "code": "mm[Hg]"
      }
    },
    "request": {
      "method": "POST",
      "url": "Observation",
      "ifNoneExist": "identifier=https://mein.krankenhaus.de/fhir/NamingSystem/observationId|212eb218f23a7c09125891b0eec9243f4098201081926e94da18750c203eb2bb"
    }
  }, {
    "fullUrl": "Observation/3615e3fb1b59f88cce2f7db00b70c3a617b5e02dea58a2b1b1da530e7e455546",
    "resource": {
      "resourceType": "Observation",
      "meta": {
        "profile": [ "https://www.netzwerk-universitaetsmedizin.de/fhir/StructureDefinition/oxygen-partial-pressure" ]
      },
      "identifier": [ {
        "type": {
          "coding": [ {
            "system": "http://terminology.hl7.org/CodeSystem/v2-0203",
            "code": "OBI",
            "display": "Observation Instance Identifier"
          } ]
        },
        "system": "https://mein.krankenhaus.de/fhir/NamingSystem/observationId",
        "value": "a688f571ef1a924db69f808806c5d77cf16f182d2e917483c972e3db76e2e9b8",
        "assigner": {
          "reference": "Organization/3a4f3433bce81181bad2d8e0b8fafccf7dc800bc06f29be73dcb38b750a48f9a"
        }
      } ],
      "status": "final",
      "category": [ {
        "coding": [ {
          "system": "http://terminology.hl7.org/CodeSystem/observation-category",
          "code": "laboratory",
          "display": "Laboratory"
        }, {
          "system": "http://loinc.org",
          "code": "26436-6",
          "display": "Laboratory studies (set)"
        }, {
          "system": "http://loinc.org",
          "code": "18767-4",
          "display": "Blood gas studies (set)"
        } ]
      } ],
      "code": {
        "coding": [ {
          "system": "http://loinc.org",
          "code": "11557-8"
        } ],
        "text": "Oxygen [Partial pressure] in blood"
      },
      "subject": {
        "reference": "Patient/ed453467c56af402bc7ca7b52779dffc1fcbf4564e9c2e0b31171f1f311de03e"
      },
      "encounter": {
        "reference": "Encounter/9bf08d2957667be3cdba164221abe51c063e661403a1802e45d3ec3dd03bdd00"
      },
      "effectiveDateTime": "2020-09-16T20:39:00+00:00",
      "valueQuantity": {
        "value": 171,
        "unit": "mmHg",
        "system": "http://unitsofmeasure.org",
        "code": "mm[Hg]"
      }
    },
    "request": {
      "method": "POST",
      "url": "Observation",
      "ifNoneExist": "identifier=https://mein.krankenhaus.de/fhir/NamingSystem/observationId|3615e3fb1b59f88cce2f7db00b70c3a617b5e02dea58a2b1b1da530e7e455546"
    }
  }, {
    "fullUrl": "Observation/49f13ce1d0be68a278d4398809be34487555c51ef2261af4457eb527da958de9",
    "resource": {
      "resourceType": "Observation",
      "meta": {
        "profile": [ "https://www.netzwerk-universitaetsmedizin.de/fhir/StructureDefinition/inhaled-oxygen-concentration" ]
      },
      "identifier": [ {
        "type": {
          "coding": [ {
            "system": "http://terminology.hl7.org/CodeSystem/v2-0203",
            "code": "OBI",
            "display": "Observation Instance Identifier"
          } ]
        },
        "system": "https://mein.krankenhaus.de/fhir/NamingSystem/observationId",
        "value": "88fc14d4a4208cfa4cc45ef9cba49d0aaf8334e977e37cbf1af6a036977596a5",
        "assigner": {
          "reference": "Organization/3a4f3433bce81181bad2d8e0b8fafccf7dc800bc06f29be73dcb38b750a48f9a"
        }
      } ],
      "status": "final",
      "category": [ {
        "coding": [ {
          "system": "http://terminology.hl7.org/CodeSystem/observation-category",
          "code": "laboratory",
          "display": "Laboratory"
        }, {
          "system": "http://loinc.org",
          "code": "26436-6",
          "display": "Laboratory studies (set)"
        }, {
          "system": "http://loinc.org",
          "code": "18767-4",
          "display": "Blood gas studies (set)"
        } ]
      } ],
      "code": {
        "coding": [ {
          "system": "http://loinc.org",
          "code": "3150-0"
        }, {
          "system": "http://snomed.info/sct",
          "code": "250774007"
        } ],
        "text": "Oxygen [Partial pressure] in blood"
      },
      "subject": {
        "reference": "Patient/ed453467c56af402bc7ca7b52779dffc1fcbf4564e9c2e0b31171f1f311de03e"
      },
      "encounter": {
        "reference": "Encounter/9bf08d2957667be3cdba164221abe51c063e661403a1802e45d3ec3dd03bdd00"
      },
      "effectiveDateTime": "2020-09-16T20:39:00+00:00",
      "valueQuantity": {
        "value": 27.77830206980605,
        "unit": "%",
        "system": "http://unitsofmeasure.org",
        "code": "%"
      }
    },
    "request": {
      "method": "POST",
      "url": "Observation",
      "ifNoneExist": "identifier=https://mein.krankenhaus.de/fhir/NamingSystem/observationId|49f13ce1d0be68a278d4398809be34487555c51ef2261af4457eb527da958de9"
    }
  }, {
    "fullUrl": "Observation/769a044a7414b69eafdda787f82e6e9f1a4075f54b90fbcec99c75ebd60610ca",
    "resource": {
      "resourceType": "Observation",
      "meta": {
        "profile": [ "https://www.netzwerk-universitaetsmedizin.de/fhir/StructureDefinition/pH" ]
      },
      "identifier": [ {
        "type": {
          "coding": [ {
            "system": "http://terminology.hl7.org/CodeSystem/v2-0203",
            "code": "OBI",
            "display": "Observation Instance Identifier"
          } ]
        },
        "system": "https://mein.krankenhaus.de/fhir/NamingSystem/observationId",
        "value": "6dd059457f00d4a326dd827323d5d85d97845bcf4494eee8424630ff237dec5c",
        "assigner": {
          "reference": "Organization/3a4f3433bce81181bad2d8e0b8fafccf7dc800bc06f29be73dcb38b750a48f9a"
        }
      } ],
      "status": "final",
      "category": [ {
        "coding": [ {
          "system": "http://terminology.hl7.org/CodeSystem/observation-category",
          "code": "laboratory",
          "display": "Laboratory"
        }, {
          "system": "http://loinc.org",
          "code": "26436-6",
          "display": "Laboratory studies (set)"
        }, {
          "system": "http://loinc.org",
          "code": "18767-4",
          "display": "Blood gas studies (set)"
        } ]
      } ],
      "code": {
        "coding": [ {
          "system": "http://loinc.org",
          "code": "11558-4"
        } ],
        "text": "pH of Blood"
      },
      "subject": {
        "reference": "Patient/ed453467c56af402bc7ca7b52779dffc1fcbf4564e9c2e0b31171f1f311de03e"
      },
      "encounter": {
        "reference": "Encounter/9bf08d2957667be3cdba164221abe51c063e661403a1802e45d3ec3dd03bdd00"
      },
      "effectiveDateTime": "2020-09-16T20:39:00+00:00",
      "valueQuantity": {
        "value": 0.557007103407754,
        "unit": "pH",
        "system": "http://unitsofmeasure.org",
        "code": "[pH]"
      }
    },
    "request": {
      "method": "POST",
      "url": "Observation",
      "ifNoneExist": "identifier=https://mein.krankenhaus.de/fhir/NamingSystem/observationId|769a044a7414b69eafdda787f82e6e9f1a4075f54b90fbcec99c75ebd60610ca"
    }
  }, {
    "fullUrl": "Observation/b0b6dd94a9ee9353dae7d485da3029689ac882bb04591f6b380a39a06d8d6918",
    "resource": {
      "resourceType": "Observation",
      "meta": {
        "profile": [ "https://www.netzwerk-universitaetsmedizin.de/fhir/StructureDefinition/sofa-score" ]
      },
      "identifier": [ {
        "type": {
          "coding": [ {
            "system": "http://terminology.hl7.org/CodeSystem/v2-0203",
            "code": "OBI",
            "display": "Observation Instance Identifier"
          } ]
        },
        "system": "https://mein.krankenhaus.de/fhir/NamingSystem/observationId",
        "value": "2c08826dea220ae40f3019aa66b889b93a4e1b3dfdf1e07f0b99ae4814e2b7fb",
        "assigner": {
          "reference": "Organization/3a4f3433bce81181bad2d8e0b8fafccf7dc800bc06f29be73dcb38b750a48f9a"
        }
      } ],
      "status": "final",
      "category": [ {
        "coding": [ {
          "system": "http://terminology.hl7.org/CodeSystem/observation-category",
          "code": "survey",
          "display": "Survey"
        } ]
      } ],
      "code": {
        "coding": [ {
          "system": "https://www.netzwerk-universitaetsmedizin.de/fhir/CodeSystem/ecrf-parameter-codes",
          "code": "06",
          "display": "SOFA-Score"
        } ],
        "text": "Sepsis-related organ failure assessment score"
      },
      "subject": {
        "reference": "Patient/ed453467c56af402bc7ca7b52779dffc1fcbf4564e9c2e0b31171f1f311de03e"
      },
      "encounter": {
        "reference": "Encounter/9bf08d2957667be3cdba164221abe51c063e661403a1802e45d3ec3dd03bdd00"
      },
      "effectiveDateTime": "2020-09-16T20:39:00+00:00",
      "valueInteger": 13,
      "component": [ {
        "code": {
          "coding": [ {
            "system": "https://www.netzwerk-universitaetsmedizin.de/fhir/CodeSystem/sofa-score",
            "code": "resp",
            "display": "Respiratory system"
          } ],
          "text": "SOFA Respiratory system scoring category"
        },
        "valueCodeableConcept": {
          "coding": [ {
            "system": "https://www.netzwerk-universitaetsmedizin.de/fhir/CodeSystem/sofa-score",
            "code": "resp4",
            "display": "Respiratory system SOFA score 4"
          } ],
          "text": "PaO2/FiO2 [mmHg (kPa)] < 100 (13.3) and mechanically ventilated"
        }
      }, {
        "code": {
          "coding": [ {
            "system": "https://www.netzwerk-universitaetsmedizin.de/fhir/CodeSystem/sofa-score",
            "code": "ns",
            "display": "Nervous system"
          } ],
          "text": "SOFA Nervous system scoring category"
        },
        "valueCodeableConcept": {
          "coding": [ {
            "system": "https://www.netzwerk-universitaetsmedizin.de/fhir/CodeSystem/sofa-score",
            "code": "ns4",
            "display": "Nervous system SOFA score 4"
          } ],
          "text": "Glasgow Coma Scale (GCS) < 6"
        }
      }, {
        "code": {
          "coding": [ {
            "system": "https://www.netzwerk-universitaetsmedizin.de/fhir/CodeSystem/sofa-score",
            "code": "kid",
            "display": "Kidneys"
          } ],
          "text": "SOFA Kidneys scoring category"
        },
        "valueCodeableConcept": {
          "coding": [ {
            "system": "https://www.netzwerk-universitaetsmedizin.de/fhir/CodeSystem/sofa-score",
            "code": "kid1",
            "display": "Kidneys SOFA score 1"
          } ],
          "text": "Creatinine (mg/dl) [umol/L] (or urine output) 1.2-1.9 [110-170]"
        }
      }, {
        "code": {
          "coding": [ {
            "system": "https://www.netzwerk-universitaetsmedizin.de/fhir/CodeSystem/sofa-score",
            "code": "cvs",
            "display": "Cardiovascular system"
          } ],
          "text": "SOFA Cardiovascular system scoring category"
        },
        "valueCodeableConcept": {
          "coding": [ {
            "system": "https://www.netzwerk-universitaetsmedizin.de/fhir/CodeSystem/sofa-score",
            "code": "cvs0",
            "display": "Cardiovascular system SOFA score 0"
          } ],
          "text": "Mean arterial pressure (definitions)  70 mmHg"
        }
      }, {
        "code": {
          "coding": [ {
            "system": "https://www.netzwerk-universitaetsmedizin.de/fhir/CodeSystem/sofa-score",
            "code": "liv",
            "display": "Liver"
          } ],
          "text": "SOFA Liver scoring category"
        },
        "valueCodeableConcept": {
          "coding": [ {
            "system": "https://www.netzwerk-universitaetsmedizin.de/fhir/CodeSystem/sofa-score",
            "code": "liv1",
            "display": "Liver SOFA score 1"
          } ],
          "text": "Bilirubin (mg/dl) [umol/L] 1.2-1.9 [20-32]"
        }
      }, {
        "code": {
          "coding": [ {
            "system": "https://www.netzwerk-universitaetsmedizin.de/fhir/CodeSystem/sofa-score",
            "code": "coa",
            "display": "Coagulation"
          } ],
          "text": "SOFA Coagulation scoring category"
        },
        "valueCodeableConcept": {
          "coding": [ {
            "system": "https://www.netzwerk-universitaetsmedizin.de/fhir/CodeSystem/sofa-score",
            "code": "coa3",
            "display": "Coagulation SOFA score 3"
          } ],
          "text": "Platelets10^3/ul < 50"
        }
      } ]
    },
    "request": {
      "method": "POST",
      "url": "Observation",
      "ifNoneExist": "identifier=https://mein.krankenhaus.de/fhir/NamingSystem/observationId|b0b6dd94a9ee9353dae7d485da3029689ac882bb04591f6b380a39a06d8d6918"
    }
  }, {
    "fullUrl": "Observation/50f537e2db49ef47a0914e44db6587e38673e32154a2ed7b46fc72e5f4b016a7",
    "resource": {
      "resourceType": "Observation",
      "meta": {
        "profile": [ "https://www.netzwerk-universitaetsmedizin.de/fhir/StructureDefinition/respiratory-rate" ]
      },
      "identifier": [ {
        "type": {
          "coding": [ {
            "system": "http://terminology.hl7.org/CodeSystem/v2-0203",
            "code": "OBI",
            "display": "Observation Instance Identifier"
          } ]
        },
        "system": "https://mein.krankenhaus.de/fhir/NamingSystem/observationId",
        "value": "1bb6eba8dbf05f1aeb2b7d650a411482488e21098020f8656f6471d2bc3d3d97",
        "assigner": {
          "reference": "Organization/3a4f3433bce81181bad2d8e0b8fafccf7dc800bc06f29be73dcb38b750a48f9a"
        }
      } ],
      "status": "final",
      "category": [ {
        "coding": [ {
          "system": "http://terminology.hl7.org/CodeSystem/observation-category",
          "code": "vital-signs",
          "display": "Vital Signs"
        } ]
      } ],
      "code": {
        "coding": [ {
          "system": "http://loinc.org",
          "code": "9279-1"
        }, {
          "system": "http://snomed.info/sct",
          "code": "86290005"
        } ],
        "text": "Respiratory rate"
      },
      "subject": {
        "reference": "Patient/ed453467c56af402bc7ca7b52779dffc1fcbf4564e9c2e0b31171f1f311de03e"
      },
      "encounter": {
        "reference": "Encounter/9bf08d2957667be3cdba164221abe51c063e661403a1802e45d3ec3dd03bdd00"
      },
      "effectiveDateTime": "2020-09-16T20:39:00+00:00",
      "valueQuantity": {
        "value": 38,
        "unit": "per minute",
        "system": "http://unitsofmeasure.org",
        "code": "/min"
      }
    },
    "request": {
      "method": "POST",
      "url": "Observation",
      "ifNoneExist": "identifier=https://mein.krankenhaus.de/fhir/NamingSystem/observationId|50f537e2db49ef47a0914e44db6587e38673e32154a2ed7b46fc72e5f4b016a7"
    }
  }, {
    "fullUrl": "Observation/7d73796ab508a73fc9083c3a882c635535c12ab8040c364399dfe25c5b9734c9",
    "resource": {
      "resourceType": "Observation",
      "meta": {
        "profile": [ "https://www.netzwerk-universitaetsmedizin.de/fhir/StructureDefinition/blood-pressure" ]
      },
      "identifier": [ {
        "type": {
          "coding": [ {
            "system": "http://terminology.hl7.org/CodeSystem/v2-0203",
            "code": "OBI",
            "display": "Observation Instance Identifier"
          } ]
        },
        "system": "https://mein.krankenhaus.de/fhir/NamingSystem/observationId",
        "value": "67847ab79436b5b5af3190a2dff746f3052c2bcce14411134fdd50e7287b5c89",
        "assigner": {
          "reference": "Organization/3a4f3433bce81181bad2d8e0b8fafccf7dc800bc06f29be73dcb38b750a48f9a"
        }
      } ],
      "status": "final",
      "category": [ {
        "coding": [ {
          "system": "http://terminology.hl7.org/CodeSystem/observation-category",
          "code": "vital-signs",
          "display": "Vital Signs"
        } ]
      } ],
      "code": {
        "coding": [ {
          "system": "http://loinc.org",
          "code": "85354-9",
          "display": "Blood pressure panel with all children optional"
        }, {
          "system": "http://snomed.info/sct",
          "code": "75367002",
          "display": "Blood pressure (observable entity)"
        } ],
        "text": "Blood pressure"
      },
      "subject": {
        "reference": "Patient/ed453467c56af402bc7ca7b52779dffc1fcbf4564e9c2e0b31171f1f311de03e"
      },
      "encounter": {
        "reference": "Encounter/9bf08d2957667be3cdba164221abe51c063e661403a1802e45d3ec3dd03bdd00"
      },
      "effectiveDateTime": "2020-09-16T20:39:00+00:00",
      "component": [ {
        "code": {
          "coding": [ {
            "system": "http://loinc.org",
            "code": "8480-6"
          }, {
            "system": "http://snomed.info/sct",
            "code": "271649006"
          } ],
          "text": "Systolic blood pressure"
        },
        "valueQuantity": {
          "value": 14,
          "unit": "mmHg",
          "system": "http://unitsofmeasure.org",
          "code": "mm[Hg]"
        }
      }, {
        "code": {
          "coding": [ {
            "system": "http://loinc.org",
            "code": "8462-4"
          }, {
            "system": "http://snomed.info/sct",
            "code": "271650006"
          } ],
          "text": "Diastolic blood pressure"
        },
        "valueQuantity": {
          "value": 89,
          "unit": "mmHg",
          "system": "http://unitsofmeasure.org",
          "code": "mm[Hg]"
        }
      } ]
    },
    "request": {
      "method": "POST",
      "url": "Observation",
      "ifNoneExist": "identifier=https://mein.krankenhaus.de/fhir/NamingSystem/observationId|7d73796ab508a73fc9083c3a882c635535c12ab8040c364399dfe25c5b9734c9"
    }
  }, {
    "fullUrl": "Observation/55800db046abe9e7e671a37211e1517cd9e4d3986577925f31e0426a6685558a",
    "resource": {
      "resourceType": "Observation",
      "meta": {
        "profile": [ "https://www.netzwerk-universitaetsmedizin.de/fhir/StructureDefinition/heart-rate" ]
      },
      "identifier": [ {
        "type": {
          "coding": [ {
            "system": "http://terminology.hl7.org/CodeSystem/v2-0203",
            "code": "OBI",
            "display": "Observation Instance Identifier"
          } ]
        },
        "system": "https://mein.krankenhaus.de/fhir/NamingSystem/observationId",
        "value": "53a036c03f25fe21a3688d196d63087688d3259e749cf5648d39d6df086dda31",
        "assigner": {
          "reference": "Organization/3a4f3433bce81181bad2d8e0b8fafccf7dc800bc06f29be73dcb38b750a48f9a"
        }
      } ],
      "status": "final",
      "category": [ {
        "coding": [ {
          "system": "http://terminology.hl7.org/CodeSystem/observation-category",
          "code": "vital-signs",
          "display": "Vital Signs"
        } ]
      } ],
      "code": {
        "coding": [ {
          "system": "http://loinc.org",
          "code": "8867-4"
        }, {
          "system": "http://snomed.info/sct",
          "code": "364075005"
        } ],
        "text": "Heart rate"
      },
      "subject": {
        "reference": "Patient/ed453467c56af402bc7ca7b52779dffc1fcbf4564e9c2e0b31171f1f311de03e"
      },
      "encounter": {
        "reference": "Encounter/9bf08d2957667be3cdba164221abe51c063e661403a1802e45d3ec3dd03bdd00"
      },
      "effectiveDateTime": "2020-09-16T20:39:00+00:00",
      "valueQuantity": {
        "value": 98,
        "unit": "per minute",
        "system": "http://unitsofmeasure.org",
        "code": "/min"
      }
    },
    "request": {
      "method": "POST",
      "url": "Observation",
      "ifNoneExist": "identifier=https://mein.krankenhaus.de/fhir/NamingSystem/observationId|55800db046abe9e7e671a37211e1517cd9e4d3986577925f31e0426a6685558a"
    }
  }, {
    "fullUrl": "Observation/e46ac42b6a8d4dc49a8dd064478468a428424424f7666e573ebfd8c828a879e6",
    "resource": {
      "resourceType": "Observation",
      "meta": {
        "profile": [ "https://www.netzwerk-universitaetsmedizin.de/fhir/StructureDefinition/body-temperature" ]
      },
      "identifier": [ {
        "type": {
          "coding": [ {
            "system": "http://terminology.hl7.org/CodeSystem/v2-0203",
            "code": "OBI",
            "display": "Observation Instance Identifier"
          } ]
        },
        "system": "https://mein.krankenhaus.de/fhir/NamingSystem/observationId",
        "value": "5f39e630f35f0fbefad931401a997eed44c32b52571f861cdbbc09182db64e4c",
        "assigner": {
          "reference": "Organization/3a4f3433bce81181bad2d8e0b8fafccf7dc800bc06f29be73dcb38b750a48f9a"
        }
      } ],
      "status": "final",
      "category": [ {
        "coding": [ {
          "system": "http://terminology.hl7.org/CodeSystem/observation-category",
          "code": "vital-signs",
          "display": "Vital Signs"
        } ]
      } ],
      "code": {
        "coding": [ {
          "system": "http://loinc.org",
          "code": "8310-5"
        }, {
          "system": "http://snomed.info/sct",
          "code": "386725007"
        } ],
        "text": "Body temperature"
      },
      "subject": {
        "reference": "Patient/ed453467c56af402bc7ca7b52779dffc1fcbf4564e9c2e0b31171f1f311de03e"
      },
      "encounter": {
        "reference": "Encounter/9bf08d2957667be3cdba164221abe51c063e661403a1802e45d3ec3dd03bdd00"
      },
      "effectiveDateTime": "2020-09-16T20:39:00+00:00",
      "valueQuantity": {
        "value": 35.20662702417384,
        "unit": "C",
        "system": "http://unitsofmeasure.org",
        "code": "Cel"
      }
    },
    "request": {
      "method": "POST",
      "url": "Observation",
      "ifNoneExist": "identifier=https://mein.krankenhaus.de/fhir/NamingSystem/observationId|e46ac42b6a8d4dc49a8dd064478468a428424424f7666e573ebfd8c828a879e6"
    }
  }, {
    "fullUrl": "Observation/f50c71f49d854fea6eb38d4ea0aa84880b5a981f70352fde9d2f79e61f5b04f4",
    "resource": {
      "resourceType": "Observation",
      "meta": {
        "profile": [ "https://www.netzwerk-universitaetsmedizin.de/fhir/StructureDefinition/oxygen-saturation" ]
      },
      "identifier": [ {
        "type": {
          "coding": [ {
            "system": "http://terminology.hl7.org/CodeSystem/v2-0203",
            "code": "OBI",
            "display": "Observation Instance Identifier"
          } ]
        },
        "system": "https://mein.krankenhaus.de/fhir/NamingSystem/observationId",
        "value": "201db3b7862ce73b205df5f8565be939d3ac70be7656259bd480d789b40370c1",
        "assigner": {
          "reference": "Organization/3a4f3433bce81181bad2d8e0b8fafccf7dc800bc06f29be73dcb38b750a48f9a"
        }
      } ],
      "status": "final",
      "category": [ {
        "coding": [ {
          "system": "http://terminology.hl7.org/CodeSystem/observation-category",
          "code": "vital-signs",
          "display": "Vital Signs"
        } ]
      } ],
      "code": {
        "coding": [ {
          "system": "http://loinc.org",
          "code": "2708-6"
        }, {
          "system": "http://loinc.org",
          "code": "59408-5"
        }, {
          "system": "http://loinc.org",
          "code": "20564-1"
        }, {
          "system": "http://snomed.info/sct",
          "code": "431314004"
        } ],
        "text": "Oxygen saturation in Arterial blood"
      },
      "subject": {
        "reference": "Patient/ed453467c56af402bc7ca7b52779dffc1fcbf4564e9c2e0b31171f1f311de03e"
      },
      "encounter": {
        "reference": "Encounter/9bf08d2957667be3cdba164221abe51c063e661403a1802e45d3ec3dd03bdd00"
      },
      "effectiveDateTime": "2020-09-16T20:39:00+00:00",
      "valueQuantity": {
        "value": 41,
        "unit": "%",
        "system": "http://unitsofmeasure.org",
        "code": "%"
      }
    },
    "request": {
      "method": "POST",
      "url": "Observation",
      "ifNoneExist": "identifier=https://mein.krankenhaus.de/fhir/NamingSystem/observationId|f50c71f49d854fea6eb38d4ea0aa84880b5a981f70352fde9d2f79e61f5b04f4"
    }
  }, {
    "fullUrl": "Observation/8997b7569bc4c4d7a41a8d3580654905a4248fd6e51087509789193c0dcb19d0",
    "resource": {
      "resourceType": "Observation",
      "meta": {
        "profile": [ "https://www.netzwerk-universitaetsmedizin.de/fhir/StructureDefinition/study-inclusion-covid-19" ]
      },
      "identifier": [ {
        "type": {
          "coding": [ {
            "system": "http://terminology.hl7.org/CodeSystem/v2-0203",
            "code": "OBI",
            "display": "Observation Instance Identifier"
          } ]
        },
        "system": "https://mein.krankenhaus.de/fhir/NamingSystem/observationId",
        "value": "7962266e5523b42dcf4c6a5a535439d079dca5cfb4054ad0bc871bc863743102",
        "assigner": {
          "reference": "Organization/3a4f3433bce81181bad2d8e0b8fafccf7dc800bc06f29be73dcb38b750a48f9a"
        }
      } ],
      "status": "final",
      "category": [ {
        "coding": [ {
          "system": "http://terminology.hl7.org/CodeSystem/observation-category",
          "code": "survey",
          "display": "Survey"
        } ]
      } ],
      "code": {
        "coding": [ {
          "system": "https://www.netzwerk-universitaetsmedizin.de/fhir/CodeSystem/ecrf-parameter-codes",
          "code": "02",
          "display": "Study inclusion due to Covid-19"
        } ],
        "text": "Confirmed Covid-19 diagnosis as main reason for enrolment in the study"
      },
      "subject": {
        "reference": "Patient/ed453467c56af402bc7ca7b52779dffc1fcbf4564e9c2e0b31171f1f311de03e"
      },
      "_effectiveDateTime": {
        "extension": [ {
          "url": "http://hl7.org/fhir/StructureDefinition/data-absent-reason",
          "valueCode": "unknown"
        } ]
      },
      "valueCodeableConcept": {
        "coding": [ {
          "system": "http://snomed.info/sct",
          "code": "261665006"
        } ]
      }
    },
    "request": {
      "method": "POST",
      "url": "Observation",
      "ifNoneExist": "identifier=https://mein.krankenhaus.de/fhir/NamingSystem/observationId|8997b7569bc4c4d7a41a8d3580654905a4248fd6e51087509789193c0dcb19d0"
    }
  }, {
    "fullUrl": "Observation/c2e1a5de8c6b433ef25939bf4b91c2d1984f8a3d09cabefa9cae1a9e526faf6d",
    "resource": {
      "resourceType": "Observation",
      "meta": {
        "profile": [ "https://www.netzwerk-universitaetsmedizin.de/fhir/StructureDefinition/interventional-clinical-trial-participation" ]
      },
      "identifier": [ {
        "type": {
          "coding": [ {
            "system": "http://terminology.hl7.org/CodeSystem/v2-0203",
            "code": "OBI",
            "display": "Observation Instance Identifier"
          } ]
        },
        "system": "https://mein.krankenhaus.de/fhir/NamingSystem/observationId",
        "value": "c436274c11ab219af4c38ec912a74c11601fd5cf0c883f7289a8caa4546d7428",
        "assigner": {
          "reference": "Organization/3a4f3433bce81181bad2d8e0b8fafccf7dc800bc06f29be73dcb38b750a48f9a"
        }
      } ],
      "status": "final",
      "category": [ {
        "coding": [ {
          "system": "http://terminology.hl7.org/CodeSystem/observation-category",
          "code": "survey",
          "display": "Survey"
        } ]
      } ],
      "code": {
        "coding": [ {
          "system": "https://www.netzwerk-universitaetsmedizin.de/fhir/CodeSystem/ecrf-parameter-codes",
          "code": "03",
          "display": "Participation in interventional clinical trials"
        } ],
        "text": "Has the patient participated in one or more interventional clinical trials?"
      },
      "subject": {
        "reference": "Patient/ed453467c56af402bc7ca7b52779dffc1fcbf4564e9c2e0b31171f1f311de03e"
      },
      "_effectiveDateTime": {
        "extension": [ {
          "url": "http://hl7.org/fhir/StructureDefinition/data-absent-reason",
          "valueCode": "unknown"
        } ]
      },
      "valueCodeableConcept": {
        "coding": [ {
          "system": "http://snomed.info/sct",
          "code": "373066001"
        } ]
      }
    },
    "request": {
      "method": "POST",
      "url": "Observation",
      "ifNoneExist": "identifier=https://mein.krankenhaus.de/fhir/NamingSystem/observationId|c2e1a5de8c6b433ef25939bf4b91c2d1984f8a3d09cabefa9cae1a9e526faf6d"
    }
  } ]
}