{
  "resourceType": "Bundle",
  "meta": {
    "profile": [ "https://www.netzwerk-universitaetsmedizin.de/fhir/StructureDefinition/gecco-bundle" ]
  },
  "type": "transaction",
  "entry": [ {
    "fullUrl": "Patient/23181a6500d3ae927d7f6402ee977a97f126663668c1ce2c835edce1c88e4dc1",
    "resource": {
      "resourceType": "Patient",
      "meta": {
        "profile": [ "https://www.netzwerk-universitaetsmedizin.de/fhir/StructureDefinition/Patient" ]
      },
      "extension": [ {
        "url": "https://www.netzwerk-universitaetsmedizin.de/fhir/StructureDefinition/age",
        "extension": [ {
          "url": "dateTimeOfDocumentation",
          "_valueDateTime": {
            "extension": [ {
              "url": "http://hl7.org/fhir/StructureDefinition/data-absent-reason",
              "valueCode": "unknown"
            } ]
          }
        }, {
          "url": "age",
          "valueAge": {
            "value": 84,
            "unit": "years",
            "system": "http://unitsofmeasure.org",
            "code": "a"
          }
        } ]
      } ],
      "identifier": [ {
        "type": {
          "coding": [ {
            "system": "http://terminology.hl7.org/CodeSystem/v2-0203",
            "code": "MR"
          } ]
        },
        "system": "https://mein.krankenhaus.de/fhir/NamingSystem/patientId",
        "value": "synthetic_patient_012584151",
        "assigner": {
          "reference": "Organization/3a4f3433bce81181bad2d8e0b8fafccf7dc800bc06f29be73dcb38b750a48f9a"
        }
      } ],
      "birthDate": "1936-01-08"
    },
    "request": {
      "method": "POST",
      "url": "Patient",
      "ifNoneExist": "identifier=https://mein.krankenhaus.de/fhir/NamingSystem/patientId|23181a6500d3ae927d7f6402ee977a97f126663668c1ce2c835edce1c88e4dc1"
    }
  }, {
    "fullUrl": "Organization/3a4f3433bce81181bad2d8e0b8fafccf7dc800bc06f29be73dcb38b750a48f9a",
    "resource": {
      "resourceType": "Organization",
      "name": "Mein Krankenhaus"
    },
    "request": {
      "method": "POST",
      "url": "Organization",
      "ifNoneExist": "identifier=null|3a4f3433bce81181bad2d8e0b8fafccf7dc800bc06f29be73dcb38b750a48f9a"
    }
  }, {
    "fullUrl": "Encounter/808013c55b88a41f81bf9970776b008457c14e95b06414e36187a2214f8028a8",
    "resource": {
      "resourceType": "Encounter",
      "identifier": [ {
        "system": "https://mein.krankenhaus.de/fhir/NamingSystem/encounterId",
        "value": "ce0db99cb722e8366f714f2756d3568f43ac3a4e0c13e0619348ecf302fd87e1",
        "assigner": {
          "reference": "Organization/3a4f3433bce81181bad2d8e0b8fafccf7dc800bc06f29be73dcb38b750a48f9a"
        }
      } ],
      "status": "unknown",
      "class": {
        "system": "http://terminology.hl7.org/CodeSystem/v3-ActCode",
        "code": "IMP",
        "display": "inpatient encounter"
      },
      "subject": {
        "reference": "Patient/23181a6500d3ae927d7f6402ee977a97f126663668c1ce2c835edce1c88e4dc1"
      }
    },
    "request": {
      "method": "POST",
      "url": "Encounter",
      "ifNoneExist": "identifier=https://mein.krankenhaus.de/fhir/NamingSystem/encounterId|808013c55b88a41f81bf9970776b008457c14e95b06414e36187a2214f8028a8"
    }
  }, {
    "fullUrl": "Condition/d8bed0eee9f56d9f1db2812186319702508e746e1245c116c820d878ebd394f9",
    "resource": {
      "resourceType": "Condition",
      "meta": {
        "profile": [ "https://www.netzwerk-universitaetsmedizin.de/fhir/StructureDefinition/diagnosis-covid-19" ]
      },
      "identifier": [ {
        "system": "https://mein.krankenhaus.de/fhir/NamingSystem/conditionId",
        "value": "4c5f54fb2c71c4441c7075fb89efe9a95506fe4bb0aecf00406331d7eb796b07"
      } ],
      "clinicalStatus": {
        "coding": [ {
          "system": "http://terminology.hl7.org/CodeSystem/condition-clinical",
          "code": "active",
          "display": "Active"
        } ]
      },
      "verificationStatus": {
        "coding": [ {
          "system": "http://terminology.hl7.org/CodeSystem/condition-ver-status",
          "code": "confirmed",
          "display": "Confirmed"
        }, {
          "system": "http://snomed.info/sct",
          "code": "410605003",
          "display": "Confirmed present (qualifier value)"
        } ]
      },
      "category": [ {
        "coding": [ {
          "system": "http://snomed.info/sct",
          "code": "394807007",
          "display": "Infectious diseases (specialty) (qualifier value)"
        } ]
      } ],
      "code": {
        "coding": [ {
          "system": "http://snomed.info/sct",
          "code": "840539006",
          "display": "Disease caused by Severe acute respiratory syndrome coronavirus 2 (disorder)"
        } ]
      },
      "subject": {
        "reference": "Patient/23181a6500d3ae927d7f6402ee977a97f126663668c1ce2c835edce1c88e4dc1"
      },
      "encounter": {
        "reference": "Encounter/808013c55b88a41f81bf9970776b008457c14e95b06414e36187a2214f8028a8"
      },
      "_recordedDate": {
        "extension": [ {
          "url": "http://hl7.org/fhir/StructureDefinition/data-absent-reason",
          "valueCode": "unknown"
        } ]
      },
      "stage": [ {
        "summary": {
          "coding": [ {
            "system": "http://snomed.info/sct",
            "code": "277022003"
          } ]
        },
        "type": {
          "coding": [ {
            "system": "http://loinc.org",
            "code": "88859-4"
          } ]
        }
      } ]
    },
    "request": {
      "method": "POST",
      "url": "Condition",
      "ifNoneExist": "identifier=https://mein.krankenhaus.de/fhir/NamingSystem/conditionId|d8bed0eee9f56d9f1db2812186319702508e746e1245c116c820d878ebd394f9"
    }
  }, {
    "fullUrl": "Condition/f5b7e41fc4887f580e92e98e1d01090248f666730b40f93728c5ed728ec52933",
    "resource": {
      "resourceType": "Condition",
      "meta": {
        "profile": [ "https://www.netzwerk-universitaetsmedizin.de/fhir/StructureDefinition/chronic-lung-diseases" ]
      },
      "identifier": [ {
        "system": "https://mein.krankenhaus.de/fhir/NamingSystem/conditionId",
        "value": "259db1ca9f2e3f78697000b7f0320c00c12866d8391972059f06e3c11b627f33"
      } ],
      "clinicalStatus": {
        "coding": [ {
          "system": "http://terminology.hl7.org/CodeSystem/condition-clinical",
          "code": "active",
          "display": "Active"
        } ]
      },
      "verificationStatus": {
        "coding": [ {
          "system": "http://terminology.hl7.org/CodeSystem/condition-ver-status",
          "code": "confirmed",
          "display": "Confirmed"
        }, {
          "system": "http://snomed.info/sct",
          "code": "410605003",
          "display": "Confirmed present (qualifier value)"
        } ]
      },
      "category": [ {
        "coding": [ {
          "system": "http://snomed.info/sct",
          "code": "418112009",
          "display": "Pulmonary medicine (qualifier value)"
        } ]
      } ],
      "code": {
        "coding": [ {
          "system": "http://fhir.de/CodeSystem/dimdi/icd-10-gm",
          "version": "2021",
          "code": "J44.9"
        }, {
          "system": "http://snomed.info/sct",
          "code": "13645005"
        } ]
      },
      "subject": {
        "reference": "Patient/23181a6500d3ae927d7f6402ee977a97f126663668c1ce2c835edce1c88e4dc1"
      },
      "encounter": {
        "reference": "Encounter/808013c55b88a41f81bf9970776b008457c14e95b06414e36187a2214f8028a8"
      },
      "_recordedDate": {
        "extension": [ {
          "url": "http://hl7.org/fhir/StructureDefinition/data-absent-reason",
          "valueCode": "unknown"
        } ]
      }
    },
    "request": {
      "method": "POST",
      "url": "Condition",
      "ifNoneExist": "identifier=https://mein.krankenhaus.de/fhir/NamingSystem/conditionId|f5b7e41fc4887f580e92e98e1d01090248f666730b40f93728c5ed728ec52933"
    }
  }, {
    "fullUrl": "Condition/e77a92bf3e0934feb09df99f417c54cd10916392ab8155facc6d1903944886f4",
    "resource": {
      "resourceType": "Condition",
      "meta": {
        "profile": [ "https://www.netzwerk-universitaetsmedizin.de/fhir/StructureDefinition/chronic-lung-diseases" ]
      },
      "identifier": [ {
        "system": "https://mein.krankenhaus.de/fhir/NamingSystem/conditionId",
        "value": "4429cc8d5be1915672e6ed338afd4f206c0cdf1ddbe24ecd7c3647963ca6563f"
      } ],
      "clinicalStatus": {
        "coding": [ {
          "system": "http://terminology.hl7.org/CodeSystem/condition-clinical",
          "code": "active",
          "display": "Active"
        } ]
      },
      "verificationStatus": {
        "coding": [ {
          "system": "http://terminology.hl7.org/CodeSystem/condition-ver-status",
          "code": "confirmed",
          "display": "Confirmed"
        }, {
          "system": "http://snomed.info/sct",
          "code": "410605003",
          "display": "Confirmed present (qualifier value)"
        } ]
      },
      "category": [ {
        "coding": [ {
          "system": "http://snomed.info/sct",
          "code": "418112009",
          "display": "Pulmonary medicine (qualifier value)"
        } ]
      } ],
      "code": {
        "coding": [ {
          "system": "http://fhir.de/CodeSystem/dimdi/icd-10-gm",
          "version": "2021",
          "code": "J84.1"
        }, {
          "system": "http://snomed.info/sct",
          "code": "51615001"
        } ]
      },
      "subject": {
        "reference": "Patient/23181a6500d3ae927d7f6402ee977a97f126663668c1ce2c835edce1c88e4dc1"
      },
      "encounter": {
        "reference": "Encounter/808013c55b88a41f81bf9970776b008457c14e95b06414e36187a2214f8028a8"
      },
      "_recordedDate": {
        "extension": [ {
          "url": "http://hl7.org/fhir/StructureDefinition/data-absent-reason",
          "valueCode": "unknown"
        } ]
      }
    },
    "request": {
      "method": "POST",
      "url": "Condition",
      "ifNoneExist": "identifier=https://mein.krankenhaus.de/fhir/NamingSystem/conditionId|e77a92bf3e0934feb09df99f417c54cd10916392ab8155facc6d1903944886f4"
    }
  }, {
    "fullUrl": "Condition/a9394f0447449cde74b8178aee23fcb880b4cb65ba30258140a247bd3cc0d639",
    "resource": {
      "resourceType": "Condition",
      "meta": {
        "profile": [ "https://www.netzwerk-universitaetsmedizin.de/fhir/StructureDefinition/chronic-lung-diseases" ]
      },
      "identifier": [ {
        "system": "https://mein.krankenhaus.de/fhir/NamingSystem/conditionId",
        "value": "416d223943230e0c066cc139ea5a70098d37cfb81d106d7b9acffa91ad83b10c"
      } ],
      "clinicalStatus": {
        "coding": [ {
          "system": "http://terminology.hl7.org/CodeSystem/condition-clinical",
          "code": "active",
          "display": "Active"
        } ]
      },
      "verificationStatus": {
        "coding": [ {
          "system": "http://terminology.hl7.org/CodeSystem/condition-ver-status",
          "code": "confirmed",
          "display": "Confirmed"
        }, {
          "system": "http://snomed.info/sct",
          "code": "410605003",
          "display": "Confirmed present (qualifier value)"
        } ]
      },
      "category": [ {
        "coding": [ {
          "system": "http://snomed.info/sct",
          "code": "418112009",
          "display": "Pulmonary medicine (qualifier value)"
        } ]
      } ],
      "code": {
        "coding": [ {
          "system": "http://fhir.de/CodeSystem/dimdi/icd-10-gm",
          "version": "2021",
          "code": "I27.0"
        }, {
          "system": "http://snomed.info/sct",
          "code": "70995007"
        } ]
      },
      "subject": {
        "reference": "Patient/23181a6500d3ae927d7f6402ee977a97f126663668c1ce2c835edce1c88e4dc1"
      },
      "encounter": {
        "reference": "Encounter/808013c55b88a41f81bf9970776b008457c14e95b06414e36187a2214f8028a8"
      },
      "_recordedDate": {
        "extension": [ {
          "url": "http://hl7.org/fhir/StructureDefinition/data-absent-reason",
          "valueCode": "unknown"
        } ]
      }
    },
    "request": {
      "method": "POST",
      "url": "Condition",
      "ifNoneExist": "identifier=https://mein.krankenhaus.de/fhir/NamingSystem/conditionId|a9394f0447449cde74b8178aee23fcb880b4cb65ba30258140a247bd3cc0d639"
    }
  }, {
    "fullUrl": "Condition/c7cdbcafc097c1d8fef2c3f22de30997fb1b941ee5410e0caf9b7fdfdfab5142",
    "resource": {
      "resourceType": "Condition",
      "meta": {
        "profile": [ "https://www.netzwerk-universitaetsmedizin.de/fhir/StructureDefinition/chronic-lung-diseases" ]
      },
      "identifier": [ {
        "system": "https://mein.krankenhaus.de/fhir/NamingSystem/conditionId",
        "value": "de027700360ac3e90dda74049f02c2c6c2b159c7eb6a4e9ed2d70a8dd8c40b7a"
      } ],
      "clinicalStatus": {
        "coding": [ {
          "system": "http://terminology.hl7.org/CodeSystem/condition-clinical",
          "code": "active",
          "display": "Active"
        } ]
      },
      "verificationStatus": {
        "coding": [ {
          "system": "http://terminology.hl7.org/CodeSystem/condition-ver-status",
          "code": "confirmed",
          "display": "Confirmed"
        }, {
          "system": "http://snomed.info/sct",
          "code": "410605003",
          "display": "Confirmed present (qualifier value)"
        } ]
      },
      "category": [ {
        "coding": [ {
          "system": "http://snomed.info/sct",
          "code": "418112009",
          "display": "Pulmonary medicine (qualifier value)"
        } ]
      } ],
      "code": {
        "coding": [ {
          "system": "http://fhir.de/CodeSystem/dimdi/icd-10-gm",
          "version": "2021",
          "code": "E66.29"
        }, {
          "system": "http://snomed.info/sct",
          "code": "190966007"
        } ]
      },
      "subject": {
        "reference": "Patient/23181a6500d3ae927d7f6402ee977a97f126663668c1ce2c835edce1c88e4dc1"
      },
      "encounter": {
        "reference": "Encounter/808013c55b88a41f81bf9970776b008457c14e95b06414e36187a2214f8028a8"
      },
      "_recordedDate": {
        "extension": [ {
          "url": "http://hl7.org/fhir/StructureDefinition/data-absent-reason",
          "valueCode": "unknown"
        } ]
      }
    },
    "request": {
      "method": "POST",
      "url": "Condition",
      "ifNoneExist": "identifier=https://mein.krankenhaus.de/fhir/NamingSystem/conditionId|c7cdbcafc097c1d8fef2c3f22de30997fb1b941ee5410e0caf9b7fdfdfab5142"
    }
  }, {
    "fullUrl": "Condition/99cd1b6edebce01c6ef6849542f008844200c79d1b2c5e54d52ba31600b4fcc3",
    "resource": {
      "resourceType": "Condition",
      "meta": {
        "profile": [ "https://www.netzwerk-universitaetsmedizin.de/fhir/StructureDefinition/chronic-lung-diseases" ]
      },
      "identifier": [ {
        "system": "https://mein.krankenhaus.de/fhir/NamingSystem/conditionId",
        "value": "3a933d7019a323095aefa0c8462cab5b4021178ddfe8acca02c18fd8368fa8ad"
      } ],
      "clinicalStatus": {
        "coding": [ {
          "system": "http://terminology.hl7.org/CodeSystem/condition-clinical",
          "code": "active",
          "display": "Active"
        } ]
      },
      "verificationStatus": {
        "coding": [ {
          "system": "http://terminology.hl7.org/CodeSystem/condition-ver-status",
          "code": "confirmed",
          "display": "Confirmed"
        }, {
          "system": "http://snomed.info/sct",
          "code": "410605003",
          "display": "Confirmed present (qualifier value)"
        } ]
      },
      "category": [ {
        "coding": [ {
          "system": "http://snomed.info/sct",
          "code": "418112009",
          "display": "Pulmonary medicine (qualifier value)"
        } ]
      } ],
      "code": {
        "coding": [ {
          "system": "http://fhir.de/CodeSystem/dimdi/icd-10-gm",
          "version": "2021",
          "code": "G47.3"
        }, {
          "system": "http://snomed.info/sct",
          "code": "73430006"
        } ]
      },
      "subject": {
        "reference": "Patient/23181a6500d3ae927d7f6402ee977a97f126663668c1ce2c835edce1c88e4dc1"
      },
      "encounter": {
        "reference": "Encounter/808013c55b88a41f81bf9970776b008457c14e95b06414e36187a2214f8028a8"
      },
      "_recordedDate": {
        "extension": [ {
          "url": "http://hl7.org/fhir/StructureDefinition/data-absent-reason",
          "valueCode": "unknown"
        } ]
      }
    },
    "request": {
      "method": "POST",
      "url": "Condition",
      "ifNoneExist": "identifier=https://mein.krankenhaus.de/fhir/NamingSystem/conditionId|99cd1b6edebce01c6ef6849542f008844200c79d1b2c5e54d52ba31600b4fcc3"
    }
  }, {
    "fullUrl": "Condition/415322299ebec80bd896b02525074804a5739bc8efe573489d2c76d99eec85cf",
    "resource": {
      "resourceType": "Condition",
      "meta": {
        "profile": [ "https://www.netzwerk-universitaetsmedizin.de/fhir/StructureDefinition/chronic-lung-diseases" ]
      },
      "modifierExtension": [ {
        "url": "https://www.netzwerk-universitaetsmedizin.de/fhir/StructureDefinition/uncertainty-of-presence",
        "valueCodeableConcept": {
          "coding": [ {
            "system": "http://snomed.info/sct",
            "code": "261665006",
            "display": "Unknown (qualifier value)"
          } ],
          "text": "Presence unknown."
        }
      } ],
      "identifier": [ {
        "system": "https://mein.krankenhaus.de/fhir/NamingSystem/conditionId",
        "value": "5ec1e537c35f7ed389c849542c11365754b54fda0f7bd9f7c25d52fd57821535"
      } ],
      "category": [ {
        "coding": [ {
          "system": "http://snomed.info/sct",
          "code": "418112009",
          "display": "Pulmonary medicine (qualifier value)"
        } ]
      } ],
      "code": {
        "coding": [ {
          "system": "http://fhir.de/CodeSystem/dimdi/icd-10-gm",
          "version": "2021",
          "code": "G47.31"
        }, {
          "system": "http://snomed.info/sct",
          "code": "78275009"
        } ]
      },
      "subject": {
        "reference": "Patient/23181a6500d3ae927d7f6402ee977a97f126663668c1ce2c835edce1c88e4dc1"
      },
      "encounter": {
        "reference": "Encounter/808013c55b88a41f81bf9970776b008457c14e95b06414e36187a2214f8028a8"
      },
      "_recordedDate": {
        "extension": [ {
          "url": "http://hl7.org/fhir/StructureDefinition/data-absent-reason",
          "valueCode": "unknown"
        } ]
      }
    },
    "request": {
      "method": "POST",
      "url": "Condition",
      "ifNoneExist": "identifier=https://mein.krankenhaus.de/fhir/NamingSystem/conditionId|415322299ebec80bd896b02525074804a5739bc8efe573489d2c76d99eec85cf"
    }
  }, {
    "fullUrl": "Condition/aae5ff7f933733de8335113ef1cfec957094e89bb0acb407950d987cfd02e65a",
    "resource": {
      "resourceType": "Condition",
      "meta": {
        "profile": [ "https://www.netzwerk-universitaetsmedizin.de/fhir/StructureDefinition/chronic-lung-diseases" ]
      },
      "identifier": [ {
        "system": "https://mein.krankenhaus.de/fhir/NamingSystem/conditionId",
        "value": "5212b40790def75d0b46bd058c13d23481a6fcda9eb27f96f4d61a84c49c3fac"
      } ],
      "verificationStatus": {
        "coding": [ {
          "system": "http://terminology.hl7.org/CodeSystem/condition-ver-status",
          "code": "refuted",
          "display": "Refuted"
        }, {
          "system": "http://snomed.info/sct",
          "code": "410594000",
          "display": "Definitely NOT present (qualifier value)"
        } ]
      },
      "category": [ {
        "coding": [ {
          "system": "http://snomed.info/sct",
          "code": "418112009",
          "display": "Pulmonary medicine (qualifier value)"
        } ]
      } ],
      "code": {
        "coding": [ {
          "system": "http://fhir.de/CodeSystem/dimdi/icd-10-gm",
          "version": "2021",
          "code": "E84.9"
        }, {
          "system": "http://snomed.info/sct",
          "code": "190905008"
        } ]
      },
      "subject": {
        "reference": "Patient/23181a6500d3ae927d7f6402ee977a97f126663668c1ce2c835edce1c88e4dc1"
      },
      "encounter": {
        "reference": "Encounter/808013c55b88a41f81bf9970776b008457c14e95b06414e36187a2214f8028a8"
      },
      "_recordedDate": {
        "extension": [ {
          "url": "http://hl7.org/fhir/StructureDefinition/data-absent-reason",
          "valueCode": "unknown"
        } ]
      }
    },
    "request": {
      "method": "POST",
      "url": "Condition",
      "ifNoneExist": "identifier=https://mein.krankenhaus.de/fhir/NamingSystem/conditionId|aae5ff7f933733de8335113ef1cfec957094e89bb0acb407950d987cfd02e65a"
    }
  }, {
    "fullUrl": "Condition/8fff4713459c242e26d802c5923e373ec51b6841293c5ffd9d2bba389e06182c",
    "resource": {
      "resourceType": "Condition",
      "meta": {
        "profile": [ "https://www.netzwerk-universitaetsmedizin.de/fhir/StructureDefinition/chronic-lung-diseases" ]
      },
      "identifier": [ {
        "system": "https://mein.krankenhaus.de/fhir/NamingSystem/conditionId",
        "value": "46aef6e8810df0c3265d16ca9ac30920450e3a10e14f0482b22dcdbce33ef743"
      } ],
      "clinicalStatus": {
        "coding": [ {
          "system": "http://terminology.hl7.org/CodeSystem/condition-clinical",
          "code": "active",
          "display": "Active"
        } ]
      },
      "verificationStatus": {
        "coding": [ {
          "system": "http://terminology.hl7.org/CodeSystem/condition-ver-status",
          "code": "confirmed",
          "display": "Confirmed"
        }, {
          "system": "http://snomed.info/sct",
          "code": "410605003",
          "display": "Confirmed present (qualifier value)"
        } ]
      },
      "category": [ {
        "coding": [ {
          "system": "http://snomed.info/sct",
          "code": "418112009",
          "display": "Pulmonary medicine (qualifier value)"
        } ]
      } ],
      "code": {
        "coding": [ {
          "system": "http://snomed.info/sct",
          "code": "106048009"
        } ],
        "text": "<Freitext>"
      },
      "subject": {
        "reference": "Patient/23181a6500d3ae927d7f6402ee977a97f126663668c1ce2c835edce1c88e4dc1"
      },
      "encounter": {
        "reference": "Encounter/808013c55b88a41f81bf9970776b008457c14e95b06414e36187a2214f8028a8"
      },
      "_recordedDate": {
        "extension": [ {
          "url": "http://hl7.org/fhir/StructureDefinition/data-absent-reason",
          "valueCode": "unknown"
        } ]
      }
    },
    "request": {
      "method": "POST",
      "url": "Condition",
      "ifNoneExist": "identifier=https://mein.krankenhaus.de/fhir/NamingSystem/conditionId|8fff4713459c242e26d802c5923e373ec51b6841293c5ffd9d2bba389e06182c"
    }
  }, {
    "fullUrl": "Condition/eb692046cc7bd9e4a99aaf587fead811fb98c2cb1f375d0ba3fc3c2dee50b9fa",
    "resource": {
      "resourceType": "Condition",
      "meta": {
        "profile": [ "https://www.netzwerk-universitaetsmedizin.de/fhir/StructureDefinition/cardiovascular-diseases" ]
      },
      "modifierExtension": [ {
        "url": "https://www.netzwerk-universitaetsmedizin.de/fhir/StructureDefinition/uncertainty-of-presence",
        "valueCodeableConcept": {
          "coding": [ {
            "system": "http://snomed.info/sct",
            "code": "261665006",
            "display": "Unknown (qualifier value)"
          } ],
          "text": "Presence unknown."
        }
      } ],
      "identifier": [ {
        "system": "https://mein.krankenhaus.de/fhir/NamingSystem/conditionId",
        "value": "8b9378fc30c4d9418031169312fdfcad66b158d308ff6730384a7f37f2ae94a7"
      } ],
      "category": [ {
        "coding": [ {
          "system": "http://snomed.info/sct",
          "code": "722414000",
          "display": "Vascular medicine (qualifier value)"
        } ]
      } ],
      "code": {
        "coding": [ {
          "system": "http://fhir.de/CodeSystem/dimdi/icd-10-gm",
          "version": "2021",
          "code": "I10.90"
        }, {
          "system": "http://snomed.info/sct",
          "code": "38341003"
        } ]
      },
      "subject": {
        "reference": "Patient/23181a6500d3ae927d7f6402ee977a97f126663668c1ce2c835edce1c88e4dc1"
      },
      "encounter": {
        "reference": "Encounter/808013c55b88a41f81bf9970776b008457c14e95b06414e36187a2214f8028a8"
      },
      "_recordedDate": {
        "extension": [ {
          "url": "http://hl7.org/fhir/StructureDefinition/data-absent-reason",
          "valueCode": "unknown"
        } ]
      }
    },
    "request": {
      "method": "POST",
      "url": "Condition",
      "ifNoneExist": "identifier=https://mein.krankenhaus.de/fhir/NamingSystem/conditionId|eb692046cc7bd9e4a99aaf587fead811fb98c2cb1f375d0ba3fc3c2dee50b9fa"
    }
  }, {
    "fullUrl": "Condition/b99398deec8a6e5d3760dd53e85d4c66d3c2580584c3d697a832cd1210507ccf",
    "resource": {
      "resourceType": "Condition",
      "meta": {
        "profile": [ "https://www.netzwerk-universitaetsmedizin.de/fhir/StructureDefinition/cardiovascular-diseases" ]
      },
      "identifier": [ {
        "system": "https://mein.krankenhaus.de/fhir/NamingSystem/conditionId",
        "value": "83793d23fc7ed64c08a2880dd6076a1de5896b1e072c3e3177376744615f4a8f"
      } ],
      "clinicalStatus": {
        "coding": [ {
          "system": "http://terminology.hl7.org/CodeSystem/condition-clinical",
          "code": "active",
          "display": "Active"
        } ]
      },
      "verificationStatus": {
        "coding": [ {
          "system": "http://terminology.hl7.org/CodeSystem/condition-ver-status",
          "code": "confirmed",
          "display": "Confirmed"
        }, {
          "system": "http://snomed.info/sct",
          "code": "410605003",
          "display": "Confirmed present (qualifier value)"
        } ]
      },
      "category": [ {
        "coding": [ {
          "system": "http://snomed.info/sct",
          "code": "722414000",
          "display": "Vascular medicine (qualifier value)"
        } ]
      } ],
      "code": {
        "coding": [ {
          "system": "http://fhir.de/CodeSystem/dimdi/icd-10-gm",
          "version": "2021",
          "code": "I25.29"
        }, {
          "system": "http://snomed.info/sct",
          "code": "417662000:246090004=22298006"
        } ]
      },
      "subject": {
        "reference": "Patient/23181a6500d3ae927d7f6402ee977a97f126663668c1ce2c835edce1c88e4dc1"
      },
      "encounter": {
        "reference": "Encounter/808013c55b88a41f81bf9970776b008457c14e95b06414e36187a2214f8028a8"
      },
      "_recordedDate": {
        "extension": [ {
          "url": "http://hl7.org/fhir/StructureDefinition/data-absent-reason",
          "valueCode": "unknown"
        } ]
      }
    },
    "request": {
      "method": "POST",
      "url": "Condition",
      "ifNoneExist": "identifier=https://mein.krankenhaus.de/fhir/NamingSystem/conditionId|b99398deec8a6e5d3760dd53e85d4c66d3c2580584c3d697a832cd1210507ccf"
    }
  }, {
    "fullUrl": "Condition/2ec07198b0f68dbbc5ea6d2a1942530bcada6d6e8c412ebab0f8e73f5e4fb542",
    "resource": {
      "resourceType": "Condition",
      "meta": {
        "profile": [ "https://www.netzwerk-universitaetsmedizin.de/fhir/StructureDefinition/cardiovascular-diseases" ]
      },
      "identifier": [ {
        "system": "https://mein.krankenhaus.de/fhir/NamingSystem/conditionId",
        "value": "bd6e0505c0a55b694c5e29a53b2112370eff96c7eafb52351f6eda70e4ffce12"
      } ],
      "clinicalStatus": {
        "coding": [ {
          "system": "http://terminology.hl7.org/CodeSystem/condition-clinical",
          "code": "active",
          "display": "Active"
        } ]
      },
      "verificationStatus": {
        "coding": [ {
          "system": "http://terminology.hl7.org/CodeSystem/condition-ver-status",
          "code": "confirmed",
          "display": "Confirmed"
        }, {
          "system": "http://snomed.info/sct",
          "code": "410605003",
          "display": "Confirmed present (qualifier value)"
        } ]
      },
      "category": [ {
        "coding": [ {
          "system": "http://snomed.info/sct",
          "code": "722414000",
          "display": "Vascular medicine (qualifier value)"
        } ]
      } ],
      "code": {
        "coding": [ {
          "system": "http://fhir.de/CodeSystem/dimdi/icd-10-gm",
          "version": "2021",
          "code": "I49.9"
        }, {
          "system": "http://snomed.info/sct",
          "code": "698247007"
        } ]
      },
      "subject": {
        "reference": "Patient/23181a6500d3ae927d7f6402ee977a97f126663668c1ce2c835edce1c88e4dc1"
      },
      "encounter": {
        "reference": "Encounter/808013c55b88a41f81bf9970776b008457c14e95b06414e36187a2214f8028a8"
      },
      "_recordedDate": {
        "extension": [ {
          "url": "http://hl7.org/fhir/StructureDefinition/data-absent-reason",
          "valueCode": "unknown"
        } ]
      }
    },
    "request": {
      "method": "POST",
      "url": "Condition",
      "ifNoneExist": "identifier=https://mein.krankenhaus.de/fhir/NamingSystem/conditionId|2ec07198b0f68dbbc5ea6d2a1942530bcada6d6e8c412ebab0f8e73f5e4fb542"
    }
  }, {
    "fullUrl": "Condition/cc1b0683ea41a5ea5122376795381e4fd3025a50246efffdf01069cee8a3d09b",
    "resource": {
      "resourceType": "Condition",
      "meta": {
        "profile": [ "https://www.netzwerk-universitaetsmedizin.de/fhir/StructureDefinition/cardiovascular-diseases" ]
      },
      "identifier": [ {
        "system": "https://mein.krankenhaus.de/fhir/NamingSystem/conditionId",
        "value": "bf7f709ec1230798b4f41490bc336d86801928105550fc483493cda9fec48f9c"
      } ],
      "clinicalStatus": {
        "coding": [ {
          "system": "http://terminology.hl7.org/CodeSystem/condition-clinical",
          "code": "active",
          "display": "Active"
        } ]
      },
      "verificationStatus": {
        "coding": [ {
          "system": "http://terminology.hl7.org/CodeSystem/condition-ver-status",
          "code": "confirmed",
          "display": "Confirmed"
        }, {
          "system": "http://snomed.info/sct",
          "code": "410605003",
          "display": "Confirmed present (qualifier value)"
        } ]
      },
      "category": [ {
        "coding": [ {
          "system": "http://snomed.info/sct",
          "code": "722414000",
          "display": "Vascular medicine (qualifier value)"
        } ]
      } ],
      "code": {
        "coding": [ {
          "system": "http://fhir.de/CodeSystem/dimdi/icd-10-gm",
          "version": "2021",
          "code": "I50.9"
        }, {
          "system": "http://snomed.info/sct",
          "code": "84114007"
        } ]
      },
      "subject": {
        "reference": "Patient/23181a6500d3ae927d7f6402ee977a97f126663668c1ce2c835edce1c88e4dc1"
      },
      "encounter": {
        "reference": "Encounter/808013c55b88a41f81bf9970776b008457c14e95b06414e36187a2214f8028a8"
      },
      "_recordedDate": {
        "extension": [ {
          "url": "http://hl7.org/fhir/StructureDefinition/data-absent-reason",
          "valueCode": "unknown"
        } ]
      }
    },
    "request": {
      "method": "POST",
      "url": "Condition",
      "ifNoneExist": "identifier=https://mein.krankenhaus.de/fhir/NamingSystem/conditionId|cc1b0683ea41a5ea5122376795381e4fd3025a50246efffdf01069cee8a3d09b"
    }
  }, {
    "fullUrl": "Condition/1b073458efee92695bcb2615496b28205a7668643c609dfae4fd68b34af35877",
    "resource": {
      "resourceType": "Condition",
      "meta": {
        "profile": [ "https://www.netzwerk-universitaetsmedizin.de/fhir/StructureDefinition/cardiovascular-diseases" ]
      },
      "identifier": [ {
        "system": "https://mein.krankenhaus.de/fhir/NamingSystem/conditionId",
        "value": "43fb19323daecee7c7be4cac59eeb16cfa6cfbbc59678ba7bbe7289e7bc48ccb"
      } ],
      "clinicalStatus": {
        "coding": [ {
          "system": "http://terminology.hl7.org/CodeSystem/condition-clinical",
          "code": "active",
          "display": "Active"
        } ]
      },
      "verificationStatus": {
        "coding": [ {
          "system": "http://terminology.hl7.org/CodeSystem/condition-ver-status",
          "code": "confirmed",
          "display": "Confirmed"
        }, {
          "system": "http://snomed.info/sct",
          "code": "410605003",
          "display": "Confirmed present (qualifier value)"
        } ]
      },
      "category": [ {
        "coding": [ {
          "system": "http://snomed.info/sct",
          "code": "722414000",
          "display": "Vascular medicine (qualifier value)"
        } ]
      } ],
      "code": {
        "coding": [ {
          "system": "http://fhir.de/CodeSystem/dimdi/icd-10-gm",
          "version": "2021",
          "code": "I73.9"
        }, {
          "system": "http://snomed.info/sct",
          "code": "399957001"
        } ]
      },
      "subject": {
        "reference": "Patient/23181a6500d3ae927d7f6402ee977a97f126663668c1ce2c835edce1c88e4dc1"
      },
      "encounter": {
        "reference": "Encounter/808013c55b88a41f81bf9970776b008457c14e95b06414e36187a2214f8028a8"
      },
      "_recordedDate": {
        "extension": [ {
          "url": "http://hl7.org/fhir/StructureDefinition/data-absent-reason",
          "valueCode": "unknown"
        } ]
      }
    },
    "request": {
      "method": "POST",
      "url": "Condition",
      "ifNoneExist": "identifier=https://mein.krankenhaus.de/fhir/NamingSystem/conditionId|1b073458efee92695bcb2615496b28205a7668643c609dfae4fd68b34af35877"
    }
  }, {
    "fullUrl": "Condition/43fdf98c675b149b6abf74661c064a5f271f5dbd19fcbe776bac383424ef538c",
    "resource": {
      "resourceType": "Condition",
      "meta": {
        "profile": [ "https://www.netzwerk-universitaetsmedizin.de/fhir/StructureDefinition/cardiovascular-diseases" ]
      },
      "identifier": [ {
        "system": "https://mein.krankenhaus.de/fhir/NamingSystem/conditionId",
        "value": "b757f882d2ba1b04331e7c78a5a0ebf151b2f4ee9fc82463c384bb0588bf1d2c"
      } ],
      "clinicalStatus": {
        "coding": [ {
          "system": "http://terminology.hl7.org/CodeSystem/condition-clinical",
          "code": "active",
          "display": "Active"
        } ]
      },
      "verificationStatus": {
        "coding": [ {
          "system": "http://terminology.hl7.org/CodeSystem/condition-ver-status",
          "code": "confirmed",
          "display": "Confirmed"
        }, {
          "system": "http://snomed.info/sct",
          "code": "410605003",
          "display": "Confirmed present (qualifier value)"
        } ]
      },
      "category": [ {
        "coding": [ {
          "system": "http://snomed.info/sct",
          "code": "722414000",
          "display": "Vascular medicine (qualifier value)"
        } ]
      } ],
      "code": {
        "coding": [ {
          "system": "http://fhir.de/CodeSystem/dimdi/icd-10-gm",
          "version": "2021",
          "code": "Z95.5"
        }, {
          "system": "http://snomed.info/sct",
          "code": "416940007:363589002=81266008"
        } ]
      },
      "subject": {
        "reference": "Patient/23181a6500d3ae927d7f6402ee977a97f126663668c1ce2c835edce1c88e4dc1"
      },
      "encounter": {
        "reference": "Encounter/808013c55b88a41f81bf9970776b008457c14e95b06414e36187a2214f8028a8"
      },
      "_recordedDate": {
        "extension": [ {
          "url": "http://hl7.org/fhir/StructureDefinition/data-absent-reason",
          "valueCode": "unknown"
        } ]
      }
    },
    "request": {
      "method": "POST",
      "url": "Condition",
      "ifNoneExist": "identifier=https://mein.krankenhaus.de/fhir/NamingSystem/conditionId|43fdf98c675b149b6abf74661c064a5f271f5dbd19fcbe776bac383424ef538c"
    }
  }, {
    "fullUrl": "Condition/6cb969e2b84eb6ca0d672ab5bc28d942cfd345f119bc54f9e681500955cd7fcc",
    "resource": {
      "resourceType": "Condition",
      "meta": {
        "profile": [ "https://www.netzwerk-universitaetsmedizin.de/fhir/StructureDefinition/cardiovascular-diseases" ]
      },
      "identifier": [ {
        "system": "https://mein.krankenhaus.de/fhir/NamingSystem/conditionId",
        "value": "8bc5e5fd07aae115a4ca08aab2b0cdfac2154a3f9507f3bf31c0437b20974dd5"
      } ],
      "clinicalStatus": {
        "coding": [ {
          "system": "http://terminology.hl7.org/CodeSystem/condition-clinical",
          "code": "active",
          "display": "Active"
        } ]
      },
      "verificationStatus": {
        "coding": [ {
          "system": "http://terminology.hl7.org/CodeSystem/condition-ver-status",
          "code": "confirmed",
          "display": "Confirmed"
        }, {
          "system": "http://snomed.info/sct",
          "code": "410605003",
          "display": "Confirmed present (qualifier value)"
        } ]
      },
      "category": [ {
        "coding": [ {
          "system": "http://snomed.info/sct",
          "code": "722414000",
          "display": "Vascular medicine (qualifier value)"
        } ]
      } ],
      "code": {
        "coding": [ {
          "system": "http://fhir.de/CodeSystem/dimdi/icd-10-gm",
          "version": "2021",
          "code": "I25.1"
        }, {
          "system": "http://snomed.info/sct",
          "code": "53741008"
        } ]
      },
      "subject": {
        "reference": "Patient/23181a6500d3ae927d7f6402ee977a97f126663668c1ce2c835edce1c88e4dc1"
      },
      "encounter": {
        "reference": "Encounter/808013c55b88a41f81bf9970776b008457c14e95b06414e36187a2214f8028a8"
      },
      "_recordedDate": {
        "extension": [ {
          "url": "http://hl7.org/fhir/StructureDefinition/data-absent-reason",
          "valueCode": "unknown"
        } ]
      }
    },
    "request": {
      "method": "POST",
      "url": "Condition",
      "ifNoneExist": "identifier=https://mein.krankenhaus.de/fhir/NamingSystem/conditionId|6cb969e2b84eb6ca0d672ab5bc28d942cfd345f119bc54f9e681500955cd7fcc"
    }
  }, {
    "fullUrl": "Condition/29775256448af2a7fa8c1534ee183d2a0e6fb883647cb076a54c83bb36117075",
    "resource": {
      "resourceType": "Condition",
      "meta": {
        "profile": [ "https://www.netzwerk-universitaetsmedizin.de/fhir/StructureDefinition/cardiovascular-diseases" ]
      },
      "modifierExtension": [ {
        "url": "https://www.netzwerk-universitaetsmedizin.de/fhir/StructureDefinition/uncertainty-of-presence",
        "valueCodeableConcept": {
          "coding": [ {
            "system": "http://snomed.info/sct",
            "code": "261665006",
            "display": "Unknown (qualifier value)"
          } ],
          "text": "Presence unknown."
        }
      } ],
      "identifier": [ {
        "system": "https://mein.krankenhaus.de/fhir/NamingSystem/conditionId",
        "value": "00c1bf3fb29818c5fa596a967cbf8d7e698a6a023332082480890571f2c9e552"
      } ],
      "category": [ {
        "coding": [ {
          "system": "http://snomed.info/sct",
          "code": "722414000",
          "display": "Vascular medicine (qualifier value)"
        } ]
      } ],
      "code": {
        "coding": [ {
          "system": "http://fhir.de/CodeSystem/dimdi/icd-10-gm",
          "version": "2021",
          "code": "I65.2"
        }, {
          "system": "http://snomed.info/sct",
          "code": "64586002"
        } ]
      },
      "subject": {
        "reference": "Patient/23181a6500d3ae927d7f6402ee977a97f126663668c1ce2c835edce1c88e4dc1"
      },
      "encounter": {
        "reference": "Encounter/808013c55b88a41f81bf9970776b008457c14e95b06414e36187a2214f8028a8"
      },
      "_recordedDate": {
        "extension": [ {
          "url": "http://hl7.org/fhir/StructureDefinition/data-absent-reason",
          "valueCode": "unknown"
        } ]
      }
    },
    "request": {
      "method": "POST",
      "url": "Condition",
      "ifNoneExist": "identifier=https://mein.krankenhaus.de/fhir/NamingSystem/conditionId|29775256448af2a7fa8c1534ee183d2a0e6fb883647cb076a54c83bb36117075"
    }
  }, {
    "fullUrl": "Condition/042fae1ef8c07dd3861e044e71a53cf705c7b8191a1db73a4dbdc253ac532b97",
    "resource": {
      "resourceType": "Condition",
      "meta": {
        "profile": [ "https://www.netzwerk-universitaetsmedizin.de/fhir/StructureDefinition/cardiovascular-diseases" ]
      },
      "modifierExtension": [ {
        "url": "https://www.netzwerk-universitaetsmedizin.de/fhir/StructureDefinition/uncertainty-of-presence",
        "valueCodeableConcept": {
          "coding": [ {
            "system": "http://snomed.info/sct",
            "code": "261665006",
            "display": "Unknown (qualifier value)"
          } ],
          "text": "Presence unknown."
        }
      } ],
      "identifier": [ {
        "system": "https://mein.krankenhaus.de/fhir/NamingSystem/conditionId",
        "value": "dca54fb051d499808cd399c7a692c4db37d6cb9411398dec369ca5ff56621f66"
      } ],
      "category": [ {
        "coding": [ {
          "system": "http://snomed.info/sct",
          "code": "722414000",
          "display": "Vascular medicine (qualifier value)"
        } ]
      } ],
      "code": {
        "coding": [ {
          "system": "http://fhir.de/CodeSystem/dimdi/icd-10-gm",
          "version": "2021",
          "code": "I51.6"
        }, {
          "system": "http://snomed.info/sct",
          "code": "49601007"
        } ]
      },
      "subject": {
        "reference": "Patient/23181a6500d3ae927d7f6402ee977a97f126663668c1ce2c835edce1c88e4dc1"
      },
      "encounter": {
        "reference": "Encounter/808013c55b88a41f81bf9970776b008457c14e95b06414e36187a2214f8028a8"
      },
      "_recordedDate": {
        "extension": [ {
          "url": "http://hl7.org/fhir/StructureDefinition/data-absent-reason",
          "valueCode": "unknown"
        } ]
      }
    },
    "request": {
      "method": "POST",
      "url": "Condition",
      "ifNoneExist": "identifier=https://mein.krankenhaus.de/fhir/NamingSystem/conditionId|042fae1ef8c07dd3861e044e71a53cf705c7b8191a1db73a4dbdc253ac532b97"
    }
  }, {
    "fullUrl": "Condition/0d4e92daca4ec2e1b0ca45dbae227ab0757ee6928094013ced28f74890192902",
    "resource": {
      "resourceType": "Condition",
      "meta": {
        "profile": [ "https://www.netzwerk-universitaetsmedizin.de/fhir/StructureDefinition/human-immunodeficiency-virus-infection" ]
      },
      "identifier": [ {
        "system": "https://mein.krankenhaus.de/fhir/NamingSystem/conditionId",
        "value": "0501ea331dfc4861005b363a8b6d617da2ab9e17e6d0e08e2dc5446f8258ea72"
      } ],
      "clinicalStatus": {
        "coding": [ {
          "system": "http://terminology.hl7.org/CodeSystem/condition-clinical",
          "code": "active",
          "display": "Active"
        } ]
      },
      "verificationStatus": {
        "coding": [ {
          "system": "http://terminology.hl7.org/CodeSystem/condition-ver-status",
          "code": "confirmed",
          "display": "Confirmed"
        }, {
          "system": "http://snomed.info/sct",
          "code": "410605003",
          "display": "Confirmed present (qualifier value)"
        } ]
      },
      "category": [ {
        "coding": [ {
          "system": "http://snomed.info/sct",
          "code": "394807007",
          "display": "Infectious diseases (specialty) (qualifier value)"
        } ]
      } ],
      "code": {
        "coding": [ {
          "system": "http://fhir.de/CodeSystem/dimdi/icd-10-gm",
          "version": "2021",
          "code": "B24"
        }, {
          "system": "http://snomed.info/sct",
          "code": "86406008"
        } ]
      },
      "subject": {
        "reference": "Patient/23181a6500d3ae927d7f6402ee977a97f126663668c1ce2c835edce1c88e4dc1"
      },
      "encounter": {
        "reference": "Encounter/808013c55b88a41f81bf9970776b008457c14e95b06414e36187a2214f8028a8"
      },
      "_recordedDate": {
        "extension": [ {
          "url": "http://hl7.org/fhir/StructureDefinition/data-absent-reason",
          "valueCode": "unknown"
        } ]
      }
    },
    "request": {
      "method": "POST",
      "url": "Condition",
      "ifNoneExist": "identifier=https://mein.krankenhaus.de/fhir/NamingSystem/conditionId|0d4e92daca4ec2e1b0ca45dbae227ab0757ee6928094013ced28f74890192902"
    }
  }, {
    "fullUrl": "Condition/e2c04e16326691ce6be0cf77329a6234fcb067223bfe9806cccd6390054d0c92",
    "resource": {
      "resourceType": "Condition",
      "meta": {
        "profile": [ "https://www.netzwerk-universitaetsmedizin.de/fhir/StructureDefinition/diabetes-mellitus" ]
      },
      "identifier": [ {
        "system": "https://mein.krankenhaus.de/fhir/NamingSystem/conditionId",
        "value": "ad08f12391b6d459f5e13a2608612a828df30f8bbb4ef91922fca9499803eb1b"
      } ],
      "verificationStatus": {
        "coding": [ {
          "system": "http://terminology.hl7.org/CodeSystem/condition-ver-status",
          "code": "confirmed",
          "display": "Confirmed"
        }, {
          "system": "http://snomed.info/sct",
          "code": "410605003",
          "display": "Confirmed present (qualifier value)"
        } ]
      },
      "category": [ {
        "coding": [ {
          "system": "http://snomed.info/sct",
          "code": "408475000",
          "display": "Diabetic medicine (qualifier value)"
        } ]
      } ],
      "code": {
        "coding": [ {
          "system": "http://snomed.info/sct",
          "code": "237599002"
        } ]
      },
      "subject": {
        "reference": "Patient/23181a6500d3ae927d7f6402ee977a97f126663668c1ce2c835edce1c88e4dc1"
      },
      "encounter": {
        "reference": "Encounter/808013c55b88a41f81bf9970776b008457c14e95b06414e36187a2214f8028a8"
      },
      "_recordedDate": {
        "extension": [ {
          "url": "http://hl7.org/fhir/StructureDefinition/data-absent-reason",
          "valueCode": "unknown"
        } ]
      }
    },
    "request": {
      "method": "POST",
      "url": "Condition",
      "ifNoneExist": "identifier=https://mein.krankenhaus.de/fhir/NamingSystem/conditionId|e2c04e16326691ce6be0cf77329a6234fcb067223bfe9806cccd6390054d0c92"
    }
  }, {
    "fullUrl": "Condition/a847261a9cd333be6439b8485179b8fe2a04ce1fddfb6100798c2f4de16e1a8d",
    "resource": {
      "resourceType": "Condition",
      "meta": {
        "profile": [ "https://www.netzwerk-universitaetsmedizin.de/fhir/StructureDefinition/malignant-neoplastic-disease" ]
      },
      "modifierExtension": [ {
        "url": "https://www.netzwerk-universitaetsmedizin.de/fhir/StructureDefinition/uncertainty-of-presence",
        "valueCodeableConcept": {
          "coding": [ {
            "system": "http://snomed.info/sct",
            "code": "261665006",
            "display": "Unknown (qualifier value)"
          } ],
          "text": "Presence unknown."
        }
      } ],
      "identifier": [ {
        "system": "https://mein.krankenhaus.de/fhir/NamingSystem/conditionId",
        "value": "b9b492fdd6696536dc553432344aee9b0c293f3e27e07a3e8a927125bf676fd2"
      } ],
      "category": [ {
        "coding": [ {
          "system": "http://snomed.info/sct",
          "code": "394593009",
          "display": "Medical oncology (qualifier value)"
        } ]
      } ],
      "code": {
        "coding": [ {
          "system": "http://fhir.de/CodeSystem/dimdi/icd-10-gm",
          "version": "2021",
          "code": "C80.9"
        }, {
          "system": "http://snomed.info/sct",
          "code": "363346000"
        } ]
      },
      "subject": {
        "reference": "Patient/23181a6500d3ae927d7f6402ee977a97f126663668c1ce2c835edce1c88e4dc1"
      },
      "encounter": {
        "reference": "Encounter/808013c55b88a41f81bf9970776b008457c14e95b06414e36187a2214f8028a8"
      },
      "_recordedDate": {
        "extension": [ {
          "url": "http://hl7.org/fhir/StructureDefinition/data-absent-reason",
          "valueCode": "unknown"
        } ]
      }
    },
    "request": {
      "method": "POST",
      "url": "Condition",
      "ifNoneExist": "identifier=https://mein.krankenhaus.de/fhir/NamingSystem/conditionId|a847261a9cd333be6439b8485179b8fe2a04ce1fddfb6100798c2f4de16e1a8d"
    }
  }, {
    "fullUrl": "Condition/3691ed07318c35240fa2fb84e85c762a09fe6ff8bd03896aff57275e4869fde0",
    "resource": {
      "resourceType": "Condition",
      "meta": {
        "profile": [ "https://www.netzwerk-universitaetsmedizin.de/fhir/StructureDefinition/gastrointestinal-ulcers" ]
      },
      "modifierExtension": [ {
        "url": "https://www.netzwerk-universitaetsmedizin.de/fhir/StructureDefinition/uncertainty-of-presence",
        "valueCodeableConcept": {
          "coding": [ {
            "system": "http://snomed.info/sct",
            "code": "261665006",
            "display": "Unknown (qualifier value)"
          } ],
          "text": "Presence unknown."
        }
      } ],
      "identifier": [ {
        "system": "https://mein.krankenhaus.de/fhir/NamingSystem/conditionId",
        "value": "1d58149528e629376408937d02e9a8c61ba6f013c21cf8c92e55534c9588f1d4"
      } ],
      "category": [ {
        "coding": [ {
          "system": "http://snomed.info/sct",
          "code": "394584008",
          "display": "Gastroenterology (qualifier value))"
        } ]
      } ],
      "code": {
        "coding": [ {
          "system": "http://fhir.de/CodeSystem/dimdi/icd-10-gm",
          "version": "2021",
          "code": "K28"
        }, {
          "system": "http://snomed.info/sct",
          "code": "40845000"
        } ]
      },
      "subject": {
        "reference": "Patient/23181a6500d3ae927d7f6402ee977a97f126663668c1ce2c835edce1c88e4dc1"
      },
      "encounter": {
        "reference": "Encounter/808013c55b88a41f81bf9970776b008457c14e95b06414e36187a2214f8028a8"
      },
      "_recordedDate": {
        "extension": [ {
          "url": "http://hl7.org/fhir/StructureDefinition/data-absent-reason",
          "valueCode": "unknown"
        } ]
      }
    },
    "request": {
      "method": "POST",
      "url": "Condition",
      "ifNoneExist": "identifier=https://mein.krankenhaus.de/fhir/NamingSystem/conditionId|3691ed07318c35240fa2fb84e85c762a09fe6ff8bd03896aff57275e4869fde0"
    }
  }, {
    "fullUrl": "Observation/c6bf7302385f6878bc352945f40afa216110ad2b17015e867aacdb87e8f146bd",
    "resource": {
      "resourceType": "Observation",
      "meta": {
        "profile": [ "https://www.netzwerk-universitaetsmedizin.de/fhir/StructureDefinition/smoking-status" ]
      },
      "identifier": [ {
        "system": "https://mein.krankenhaus.de/fhir/NamingSystem/observationId",
        "value": "ce3b061d148f134ad21d1b285b62c8df6b5588e0c438072c62955766bfa0a7e3"
      } ],
      "status": "final",
      "category": [ {
        "coding": [ {
          "system": "http://terminology.hl7.org/CodeSystem/observation-category",
          "code": "social-history",
          "display": "Social History"
        } ]
      } ],
      "code": {
        "coding": [ {
          "system": "http://loinc.org",
          "code": "72166-2"
        } ]
      },
      "subject": {
        "reference": "Patient/23181a6500d3ae927d7f6402ee977a97f126663668c1ce2c835edce1c88e4dc1"
      },
      "encounter": {
        "reference": "Encounter/808013c55b88a41f81bf9970776b008457c14e95b06414e36187a2214f8028a8"
      },
      "_effectiveDateTime": {
        "extension": [ {
          "url": "http://hl7.org/fhir/StructureDefinition/data-absent-reason",
          "valueCode": "unknown"
        } ]
      },
      "valueCodeableConcept": {
        "coding": [ {
          "system": "http://loinc.org",
          "code": "LA18978-9"
        } ]
      }
    },
    "request": {
      "method": "POST",
      "url": "Observation",
      "ifNoneExist": "identifier=https://mein.krankenhaus.de/fhir/NamingSystem/observationId|c6bf7302385f6878bc352945f40afa216110ad2b17015e867aacdb87e8f146bd"
    }
  }, {
    "fullUrl": "Procedure/7ea369d9d0810a10582bc9977bce0d3d1cb68a2f98bab34c07c877c2b62992ad",
    "resource": {
      "resourceType": "Procedure",
      "meta": {
        "profile": [ "https://www.netzwerk-universitaetsmedizin.de/fhir/StructureDefinition/respiratory-therapies" ]
      },
      "identifier": [ {
        "system": "https://mein.krankenhaus.de/fhir/NamingSystem/procedureId",
        "value": "43ec18c3232f1bd016dcf1b273f0387f2133da203619941f4464d1dd7a18b7ad"
      } ],
      "status": "in-progress",
      "category": {
        "coding": [ {
          "system": "http://snomed.info/sct",
          "code": "277132007",
          "display": "Therapeutic procedure (procedure)"
        } ]
      },
      "code": {
        "coding": [ {
          "system": "http://snomed.info/sct",
          "code": "53950000"
        } ]
      },
      "subject": {
        "reference": "Patient/23181a6500d3ae927d7f6402ee977a97f126663668c1ce2c835edce1c88e4dc1"
      },
      "encounter": {
        "reference": "Encounter/808013c55b88a41f81bf9970776b008457c14e95b06414e36187a2214f8028a8"
      },
      "_performedDateTime": {
        "extension": [ {
          "url": "http://hl7.org/fhir/StructureDefinition/data-absent-reason",
          "valueCode": "unknown"
        } ]
      }
    },
    "request": {
      "method": "POST",
      "url": "Procedure",
      "ifNoneExist": "identifier=https://mein.krankenhaus.de/fhir/NamingSystem/procedureId|7ea369d9d0810a10582bc9977bce0d3d1cb68a2f98bab34c07c877c2b62992ad"
    }
  }, {
    "fullUrl": "Immunization/2aded919e85c7ab568a18ee0d61d95f8b6a0b2dccad05214e6f86039bcd3cf00",
    "resource": {
      "resourceType": "Immunization",
      "meta": {
        "profile": [ "https://www.netzwerk-universitaetsmedizin.de/fhir/StructureDefinition/immunization" ]
      },
      "identifier": [ {
        "system": "https://mein.krankenhaus.de/fhir/NamingSystem/immunizationId",
        "value": "442b15d5d9af79802c8158f729f15696b1b20ddb5866937a917dcec2799ca6a4"
      } ],
      "status": "not-done",
      "vaccineCode": {
        "coding": [ {
          "system": "http://snomed.info/sct",
          "code": "836398006"
        } ]
      },
      "patient": {
        "reference": "Patient/23181a6500d3ae927d7f6402ee977a97f126663668c1ce2c835edce1c88e4dc1"
      },
      "encounter": {
        "reference": "Encounter/808013c55b88a41f81bf9970776b008457c14e95b06414e36187a2214f8028a8"
      },
      "_occurrenceDateTime": {
        "extension": [ {
          "url": "http://hl7.org/fhir/StructureDefinition/data-absent-reason",
          "valueCode": "unknown"
        } ]
      },
      "protocolApplied": [ {
        "targetDisease": [ {
          "coding": [ {
            "system": "http://snomed.info/sct",
            "code": "16814004"
          } ]
        } ],
        "_doseNumberString": {
          "extension": [ {
            "url": "http://hl7.org/fhir/StructureDefinition/data-absent-reason",
            "valueCode": "unknown"
          } ]
        }
      } ]
    },
    "request": {
      "method": "POST",
      "url": "Immunization",
      "ifNoneExist": "identifier=https://mein.krankenhaus.de/fhir/NamingSystem/immunizationId|2aded919e85c7ab568a18ee0d61d95f8b6a0b2dccad05214e6f86039bcd3cf00"
    }
  }, {
    "fullUrl": "Immunization/78299021feefe48ae4bf230cf149b359c9ee7cab501daadd7943fa5207aa7e98",
    "resource": {
      "resourceType": "Immunization",
      "meta": {
        "profile": [ "https://www.netzwerk-universitaetsmedizin.de/fhir/StructureDefinition/immunization" ]
      },
      "identifier": [ {
        "system": "https://mein.krankenhaus.de/fhir/NamingSystem/immunizationId",
        "value": "75e859a855fbe3115a7ac8ded8f7cd2b7cb8c36d5c65337677ec46ad7b5ba258"
      } ],
      "status": "not-done",
      "vaccineCode": {
        "coding": [ {
          "system": "http://snomed.info/sct",
          "code": "836402002"
        } ]
      },
      "patient": {
        "reference": "Patient/23181a6500d3ae927d7f6402ee977a97f126663668c1ce2c835edce1c88e4dc1"
      },
      "encounter": {
        "reference": "Encounter/808013c55b88a41f81bf9970776b008457c14e95b06414e36187a2214f8028a8"
      },
      "_occurrenceDateTime": {
        "extension": [ {
          "url": "http://hl7.org/fhir/StructureDefinition/data-absent-reason",
          "valueCode": "unknown"
        } ]
      },
      "protocolApplied": [ {
        "targetDisease": [ {
          "coding": [ {
            "system": "http://snomed.info/sct",
            "code": "56717001"
          } ]
        } ],
        "_doseNumberString": {
          "extension": [ {
            "url": "http://hl7.org/fhir/StructureDefinition/data-absent-reason",
            "valueCode": "unknown"
          } ]
        }
      } ]
    },
    "request": {
      "method": "POST",
      "url": "Immunization",
      "ifNoneExist": "identifier=https://mein.krankenhaus.de/fhir/NamingSystem/immunizationId|78299021feefe48ae4bf230cf149b359c9ee7cab501daadd7943fa5207aa7e98"
    }
  }, {
    "fullUrl": "Immunization/ec217fe85ab971c6f54bade5be1d4e93dc2f0a0822e9606def77f94dcce1e981",
    "resource": {
      "resourceType": "Immunization",
      "meta": {
        "profile": [ "https://www.netzwerk-universitaetsmedizin.de/fhir/StructureDefinition/immunization" ]
      },
      "identifier": [ {
        "system": "https://mein.krankenhaus.de/fhir/NamingSystem/immunizationId",
        "value": "0f81cfa672593687828c00e648789e96c00c469e752fbf525fc25ac1fa19325b"
      } ],
      "status": "not-done",
      "vaccineCode": {
        "coding": [ {
          "system": "http://snomed.info/sct",
          "code": "1119349007"
        } ]
      },
      "patient": {
        "reference": "Patient/23181a6500d3ae927d7f6402ee977a97f126663668c1ce2c835edce1c88e4dc1"
      },
      "encounter": {
        "reference": "Encounter/808013c55b88a41f81bf9970776b008457c14e95b06414e36187a2214f8028a8"
      },
      "_occurrenceDateTime": {
        "extension": [ {
          "url": "http://hl7.org/fhir/StructureDefinition/data-absent-reason",
          "valueCode": "unknown"
        } ]
      },
      "protocolApplied": [ {
        "targetDisease": [ {
          "coding": [ {
            "system": "http://snomed.info/sct",
            "code": "840539006"
          } ]
        } ],
        "_doseNumberString": {
          "extension": [ {
            "url": "http://hl7.org/fhir/StructureDefinition/data-absent-reason",
            "valueCode": "unknown"
          } ]
        }
      } ]
    },
    "request": {
      "method": "POST",
      "url": "Immunization",
      "ifNoneExist": "identifier=https://mein.krankenhaus.de/fhir/NamingSystem/immunizationId|ec217fe85ab971c6f54bade5be1d4e93dc2f0a0822e9606def77f94dcce1e981"
    }
  }, {
    "fullUrl": "Immunization/46bc163c6a2d0a824b8c3df48e0a5877fdd2915a8d36a96220f48dcf5d526ae7",
    "resource": {
      "resourceType": "Immunization",
      "meta": {
        "profile": [ "https://www.netzwerk-universitaetsmedizin.de/fhir/StructureDefinition/immunization" ]
      },
      "identifier": [ {
        "system": "https://mein.krankenhaus.de/fhir/NamingSystem/immunizationId",
        "value": "f68fb3187536d1a8121bfb178cbe3315d968c10a59e0e78cd9346bb68f4df41f"
      } ],
      "status": "completed",
      "vaccineCode": {
        "coding": [ {
          "system": "http://hl7.org/fhir/uv/ips/CodeSystem/absent-unknown-uv-ips",
          "code": "no-known-immunizations",
          "display": "vaccineCode unknown"
        } ]
      },
      "patient": {
        "reference": "Patient/23181a6500d3ae927d7f6402ee977a97f126663668c1ce2c835edce1c88e4dc1"
      },
      "encounter": {
        "reference": "Encounter/808013c55b88a41f81bf9970776b008457c14e95b06414e36187a2214f8028a8"
      },
      "occurrenceDateTime": "2020-08-30",
      "protocolApplied": [ {
        "targetDisease": [ {
          "coding": [ {
            "system": "http://snomed.info/sct",
            "code": "64572001"
          } ],
          "text": "<Freitext>"
        } ],
        "_doseNumberString": {
          "extension": [ {
            "url": "http://hl7.org/fhir/StructureDefinition/data-absent-reason",
            "valueCode": "unknown"
          } ]
        }
      } ]
    },
    "request": {
      "method": "POST",
      "url": "Immunization",
      "ifNoneExist": "identifier=https://mein.krankenhaus.de/fhir/NamingSystem/immunizationId|46bc163c6a2d0a824b8c3df48e0a5877fdd2915a8d36a96220f48dcf5d526ae7"
    }
  }, {
    "fullUrl": "Consent/1b72bd968ed20176b52bcc8f9bd8eff128af72f670278213f40772e28ec911cd",
    "resource": {
      "resourceType": "Consent",
      "meta": {
        "profile": [ "https://www.netzwerk-universitaetsmedizin.de/fhir/StructureDefinition/do-not-resuscitate-order" ]
      },
      "identifier": [ {
        "system": "https://mein.krankenhaus.de/fhir/NamingSystem/consentId",
        "value": "e611492a0922812bde114edec8007904b6901ce754a05ef9bdabfb1625d3f9e8"
      } ],
      "status": "active",
      "scope": {
        "coding": [ {
          "system": "http://terminology.hl7.org/CodeSystem/consentscope",
          "code": "adr",
          "display": "Advanced Care Directive"
        } ]
      },
      "category": [ {
        "coding": [ {
          "system": "http://terminology.hl7.org/CodeSystem/consentcategorycodes",
          "code": "dnr",
          "display": "Do Not Resuscitate"
        } ]
      } ],
      "patient": {
        "reference": "Patient/23181a6500d3ae927d7f6402ee977a97f126663668c1ce2c835edce1c88e4dc1"
      },
      "policy": [ {
        "uri": "https://www.aerzteblatt.de/archiv/65440/DNR-Anordnungen-Das-fehlende-Bindeglied"
      } ],
      "provision": {
        "code": [ {
          "coding": [ {
            "system": "http://snomed.info/sct",
            "code": "261665006"
          } ]
        } ]
      }
    },
    "request": {
      "method": "POST",
      "url": "Consent",
      "ifNoneExist": "identifier=https://mein.krankenhaus.de/fhir/NamingSystem/consentId|1b72bd968ed20176b52bcc8f9bd8eff128af72f670278213f40772e28ec911cd"
    }
  }, {
    "fullUrl": "Observation/c6810bd95959a8c99bf021692e009b04ba65602798a30f30867b5f6f93631c26",
    "resource": {
      "resourceType": "Observation",
      "meta": {
        "profile": [ "https://www.netzwerk-universitaetsmedizin.de/fhir/StructureDefinition/sex-assigned-at-birth" ]
      },
      "identifier": [ {
        "system": "https://mein.krankenhaus.de/fhir/NamingSystem/observationId",
        "value": "982513dc8a6c08425e1039b1c3941677964b1cffa977ce2789351b46f15e6cc1"
      } ],
      "status": "final",
      "category": [ {
        "coding": [ {
          "system": "http://terminology.hl7.org/CodeSystem/observation-category",
          "code": "social-history",
          "display": "Social History"
        } ]
      } ],
      "code": {
        "coding": [ {
          "system": "http://loinc.org",
          "code": "76689-9"
        } ]
      },
      "subject": {
        "reference": "Patient/23181a6500d3ae927d7f6402ee977a97f126663668c1ce2c835edce1c88e4dc1"
      },
      "encounter": {
        "reference": "Encounter/808013c55b88a41f81bf9970776b008457c14e95b06414e36187a2214f8028a8"
      },
      "_effectiveDateTime": {
        "extension": [ {
          "url": "http://hl7.org/fhir/StructureDefinition/data-absent-reason",
          "valueCode": "unknown"
        } ]
      },
      "valueCodeableConcept": {
        "coding": [ {
          "system": "http://hl7.org/fhir/administrative-gender",
          "code": "unknown"
        } ]
      }
    },
    "request": {
      "method": "POST",
      "url": "Observation",
      "ifNoneExist": "identifier=https://mein.krankenhaus.de/fhir/NamingSystem/observationId|c6810bd95959a8c99bf021692e009b04ba65602798a30f30867b5f6f93631c26"
    }
  }, {
    "fullUrl": "Observation/21a14aa0e50c87e0de846b423ebc72aad2fe47267cb3b4b017240325bc918b35",
    "resource": {
      "resourceType": "Observation",
      "meta": {
        "profile": [ "https://www.netzwerk-universitaetsmedizin.de/fhir/StructureDefinition/frailty-score" ]
      },
      "identifier": [ {
        "type": {
          "coding": [ {
            "system": "http://terminology.hl7.org/CodeSystem/v2-0203",
            "code": "OBI",
            "display": "Observation Instance Identifier"
          } ]
        },
        "system": "https://mein.krankenhaus.de/fhir/NamingSystem/observationId",
        "value": "b64a9511a34b081aaa871e5fd1467dfbe0038ab7ab409d01707172f5d0c9c3ea",
        "assigner": {
          "reference": "Organization/3a4f3433bce81181bad2d8e0b8fafccf7dc800bc06f29be73dcb38b750a48f9a"
        }
      } ],
      "status": "final",
      "category": [ {
        "coding": [ {
          "system": "http://terminology.hl7.org/CodeSystem/observation-category",
          "code": "survey",
          "display": "Survey"
        } ]
      } ],
      "code": {
        "coding": [ {
          "system": "http://snomed.info/sct",
          "code": "763264000"
        } ],
        "text": "Frailty Scale Score"
      },
      "subject": {
        "reference": "Patient/23181a6500d3ae927d7f6402ee977a97f126663668c1ce2c835edce1c88e4dc1"
      },
      "encounter": {
        "reference": "Encounter/808013c55b88a41f81bf9970776b008457c14e95b06414e36187a2214f8028a8"
      },
      "_effectiveDateTime": {
        "extension": [ {
          "url": "http://hl7.org/fhir/StructureDefinition/data-absent-reason",
          "valueCode": "unknown"
        } ]
      },
      "valueCodeableConcept": {
        "coding": [ {
          "system": "https://www.netzwerk-universitaetsmedizin.de/fhir/CodeSystem/frailty-score",
          "code": "1"
        } ]
      },
      "method": {
        "coding": [ {
          "system": "http://snomed.info/sct",
          "code": "445414007",
          "display": "Canadian Study of Health and Aging clinical frailty scale"
        } ]
      }
    },
    "request": {
      "method": "POST",
      "url": "Observation",
      "ifNoneExist": "identifier=https://mein.krankenhaus.de/fhir/NamingSystem/observationId|21a14aa0e50c87e0de846b423ebc72aad2fe47267cb3b4b017240325bc918b35"
    }
  }, {
    "fullUrl": "Observation/03605f3d2c9e15ba600b7971d0a2bf269c9cf59d4cee94a4ebbfb28dc83741a4",
    "resource": {
      "resourceType": "Observation",
      "meta": {
        "profile": [ "https://www.netzwerk-universitaetsmedizin.de/fhir/StructureDefinition/body-weight" ]
      },
      "identifier": [ {
        "type": {
          "coding": [ {
            "system": "http://terminology.hl7.org/CodeSystem/v2-0203",
            "code": "OBI",
            "display": "Observation Instance Identifier"
          } ]
        },
        "system": "https://mein.krankenhaus.de/fhir/NamingSystem/observationId",
        "value": "6c365eb93e7d3e1f06094adb08a94258a0988df23746b0d2e391762fcf8731a7",
        "assigner": {
          "reference": "Organization/3a4f3433bce81181bad2d8e0b8fafccf7dc800bc06f29be73dcb38b750a48f9a"
        }
      } ],
      "status": "final",
      "category": [ {
        "coding": [ {
          "system": "http://terminology.hl7.org/CodeSystem/observation-category",
          "code": "vital-signs",
          "display": "Vital Signs"
        } ]
      } ],
      "code": {
        "coding": [ {
          "system": "http://loinc.org",
          "code": "29463-7"
        }, {
          "system": "http://snomed.info/sct",
          "code": "27113001"
        } ],
        "text": "Body Weight"
      },
      "subject": {
        "reference": "Patient/23181a6500d3ae927d7f6402ee977a97f126663668c1ce2c835edce1c88e4dc1"
      },
      "encounter": {
        "reference": "Encounter/808013c55b88a41f81bf9970776b008457c14e95b06414e36187a2214f8028a8"
      },
      "_effectiveDateTime": {
        "extension": [ {
          "url": "http://hl7.org/fhir/StructureDefinition/data-absent-reason",
          "valueCode": "unknown"
        } ]
      },
      "valueQuantity": {
        "value": 23,
        "unit": "kilogram",
        "system": "http://unitsofmeasure.org",
        "code": "kg"
      }
    },
    "request": {
      "method": "POST",
      "url": "Observation",
      "ifNoneExist": "identifier=https://mein.krankenhaus.de/fhir/NamingSystem/observationId|03605f3d2c9e15ba600b7971d0a2bf269c9cf59d4cee94a4ebbfb28dc83741a4"
    }
  }, {
    "fullUrl": "Observation/9c0483286774a8b7c2644caffbf463b7eb2cc795d03edbf7824c2c94957ad568",
    "resource": {
      "resourceType": "Observation",
      "meta": {
        "profile": [ "https://www.netzwerk-universitaetsmedizin.de/fhir/StructureDefinition/body-height" ]
      },
      "identifier": [ {
        "type": {
          "coding": [ {
            "system": "http://terminology.hl7.org/CodeSystem/v2-0203",
            "code": "OBI",
            "display": "Observation Instance Identifier"
          } ]
        },
        "system": "https://mein.krankenhaus.de/fhir/NamingSystem/observationId",
        "value": "8ca70728d229cd5bd1f135850e4d21366967e244abf90ce9aeef1c469519deb2",
        "assigner": {
          "reference": "Organization/3a4f3433bce81181bad2d8e0b8fafccf7dc800bc06f29be73dcb38b750a48f9a"
        }
      } ],
      "status": "final",
      "category": [ {
        "coding": [ {
          "system": "http://terminology.hl7.org/CodeSystem/observation-category",
          "code": "vital-signs",
          "display": "Vital Signs"
        } ]
      } ],
      "code": {
        "coding": [ {
          "system": "http://loinc.org",
          "code": "8302-2"
        }, {
          "system": "http://snomed.info/sct",
          "code": "50373000"
        } ],
        "text": "Body height"
      },
      "subject": {
        "reference": "Patient/23181a6500d3ae927d7f6402ee977a97f126663668c1ce2c835edce1c88e4dc1"
      },
      "encounter": {
        "reference": "Encounter/808013c55b88a41f81bf9970776b008457c14e95b06414e36187a2214f8028a8"
      },
      "_effectiveDateTime": {
        "extension": [ {
          "url": "http://hl7.org/fhir/StructureDefinition/data-absent-reason",
          "valueCode": "unknown"
        } ]
      },
      "valueQuantity": {
        "value": 141,
        "unit": "centimeter",
        "system": "http://unitsofmeasure.org",
        "code": "cm"
      }
    },
    "request": {
      "method": "POST",
      "url": "Observation",
      "ifNoneExist": "identifier=https://mein.krankenhaus.de/fhir/NamingSystem/observationId|9c0483286774a8b7c2644caffbf463b7eb2cc795d03edbf7824c2c94957ad568"
    }
  }, {
    "fullUrl": "Observation/cb003ccbb6f38431bc442dd3c88a15b0f2fb687f806ab64d56fbb23a8ddfdb81",
    "resource": {
      "resourceType": "Observation",
      "meta": {
        "profile": [ "https://www.netzwerk-universitaetsmedizin.de/fhir/StructureDefinition/known-exposure" ]
      },
      "identifier": [ {
        "type": {
          "coding": [ {
            "system": "http://terminology.hl7.org/CodeSystem/v2-0203",
            "code": "OBI",
            "display": "Observation Instance Identifier"
          } ]
        },
        "system": "https://mein.krankenhaus.de/fhir/NamingSystem/observationId",
        "value": "dc41700298507dcd878b4531a332e35de41b69dbd2c7202d5962d3ef2b520b13",
        "assigner": {
          "reference": "Organization/3a4f3433bce81181bad2d8e0b8fafccf7dc800bc06f29be73dcb38b750a48f9a"
        }
      } ],
      "status": "final",
      "category": [ {
        "coding": [ {
          "system": "http://terminology.hl7.org/CodeSystem/observation-category",
          "code": "social-history",
          "display": "Social History"
        } ]
      } ],
      "code": {
        "coding": [ {
          "system": "http://loinc.org",
          "code": "88636-6"
        } ],
        "text": "Known exposure"
      },
      "subject": {
        "reference": "Patient/23181a6500d3ae927d7f6402ee977a97f126663668c1ce2c835edce1c88e4dc1"
      },
      "encounter": {
        "reference": "Encounter/808013c55b88a41f81bf9970776b008457c14e95b06414e36187a2214f8028a8"
      },
      "_effectiveDateTime": {
        "extension": [ {
          "url": "http://hl7.org/fhir/StructureDefinition/data-absent-reason",
          "valueCode": "unknown"
        } ]
      },
      "dataAbsentReason": {
        "coding": [ {
          "system": "http://terminology.hl7.org/CodeSystem/data-absent-reason",
          "code": "unknown",
          "display": "Unknown"
        } ]
      }
    },
    "request": {
      "method": "POST",
      "url": "Observation",
      "ifNoneExist": "identifier=https://mein.krankenhaus.de/fhir/NamingSystem/observationId|cb003ccbb6f38431bc442dd3c88a15b0f2fb687f806ab64d56fbb23a8ddfdb81"
    }
  }, {
    "fullUrl": "Procedure/045662a268f1e3f12ef0954cd183d218ab6201744a9fc45cd515b5b926f38d3e",
    "resource": {
      "resourceType": "Procedure",
      "meta": {
        "profile": [ "https://www.netzwerk-universitaetsmedizin.de/fhir/StructureDefinition/dialysis" ]
      },
      "identifier": [ {
        "system": "https://mein.krankenhaus.de/fhir/NamingSystem/procedureId",
        "value": "5ba5882b6321fa063e48a71326c07d0b62123376764cdf00983cf23ae068b033"
      } ],
      "status": "not-done",
      "category": {
        "coding": [ {
          "system": "http://snomed.info/sct",
          "code": "277132007",
          "display": "Therapeutic procedure (procedure)"
        } ]
      },
      "code": {
        "coding": [ {
          "system": "http://snomed.info/sct",
          "code": "108241001"
        } ],
        "text": "Dialysis"
      },
      "subject": {
        "reference": "Patient/23181a6500d3ae927d7f6402ee977a97f126663668c1ce2c835edce1c88e4dc1"
      },
      "encounter": {
        "reference": "Encounter/808013c55b88a41f81bf9970776b008457c14e95b06414e36187a2214f8028a8"
      },
      "_performedDateTime": {
        "extension": [ {
          "url": "http://hl7.org/fhir/StructureDefinition/data-absent-reason",
          "valueCode": "not-performed"
        } ]
      }
    },
    "request": {
      "method": "POST",
      "url": "Procedure",
      "ifNoneExist": "identifier=https://mein.krankenhaus.de/fhir/NamingSystem/procedureId|045662a268f1e3f12ef0954cd183d218ab6201744a9fc45cd515b5b926f38d3e"
    }
  }, {
    "fullUrl": "Procedure/9a1b1dbea74be25b8ccfe8f11e956f762db4e17edd8723311ee56da51d108499",
    "resource": {
      "resourceType": "Procedure",
      "meta": {
        "profile": [ "https://www.netzwerk-universitaetsmedizin.de/fhir/StructureDefinition/apheresis" ]
      },
      "identifier": [ {
        "system": "https://mein.krankenhaus.de/fhir/NamingSystem/procedureId",
        "value": "af8bee8374777607d908d12e538bfa69d68c373d28dbfd17165b424031bb39ae"
      } ],
      "status": "in-progress",
      "category": {
        "coding": [ {
          "system": "http://snomed.info/sct",
          "code": "277132007",
          "display": "Therapeutic procedure (procedure)"
        } ]
      },
      "code": {
        "coding": [ {
          "system": "http://snomed.info/sct",
          "code": "127788007"
        } ],
        "text": "Apheresis"
      },
      "subject": {
        "reference": "Patient/23181a6500d3ae927d7f6402ee977a97f126663668c1ce2c835edce1c88e4dc1"
      },
      "encounter": {
        "reference": "Encounter/808013c55b88a41f81bf9970776b008457c14e95b06414e36187a2214f8028a8"
      },
      "_performedDateTime": {
        "extension": [ {
          "url": "http://hl7.org/fhir/StructureDefinition/data-absent-reason",
          "valueCode": "unknown"
        } ]
      }
    },
    "request": {
      "method": "POST",
      "url": "Procedure",
      "ifNoneExist": "identifier=https://mein.krankenhaus.de/fhir/NamingSystem/procedureId|9a1b1dbea74be25b8ccfe8f11e956f762db4e17edd8723311ee56da51d108499"
    }
  }, {
    "fullUrl": "Procedure/7e0a8ccd8cd5ff92627044e4536efe81187eff8099ec61961e7fc32925748a32",
    "resource": {
      "resourceType": "Procedure",
      "meta": {
        "profile": [ "https://www.netzwerk-universitaetsmedizin.de/fhir/StructureDefinition/prone-position" ]
      },
      "identifier": [ {
        "system": "https://mein.krankenhaus.de/fhir/NamingSystem/procedureId",
        "value": "76529a7a7afedc828a996a76f808f3f964676ddd2aa7a9f0fd7d7717c8e6ac21"
      } ],
      "status": "not-done",
      "category": {
        "coding": [ {
          "system": "http://snomed.info/sct",
          "code": "225287004",
          "display": "Procedures relating to positioning and support (procedure)"
        } ]
      },
      "code": {
        "coding": [ {
          "system": "http://snomed.info/sct",
          "code": "431182000"
        } ],
        "text": "Prone position"
      },
      "subject": {
        "reference": "Patient/23181a6500d3ae927d7f6402ee977a97f126663668c1ce2c835edce1c88e4dc1"
      },
      "encounter": {
        "reference": "Encounter/808013c55b88a41f81bf9970776b008457c14e95b06414e36187a2214f8028a8"
      },
      "_performedDateTime": {
        "extension": [ {
          "url": "http://hl7.org/fhir/StructureDefinition/data-absent-reason",
          "valueCode": "not-performed"
        } ]
      }
    },
    "request": {
      "method": "POST",
      "url": "Procedure",
      "ifNoneExist": "identifier=https://mein.krankenhaus.de/fhir/NamingSystem/procedureId|7e0a8ccd8cd5ff92627044e4536efe81187eff8099ec61961e7fc32925748a32"
    }
  }, {
    "fullUrl": "Procedure/e085c0d874bec761e18a689659e29826cc601a3178e02ba8c82dd266fdc64dbf",
    "resource": {
      "resourceType": "Procedure",
      "meta": {
        "profile": [ "https://www.netzwerk-universitaetsmedizin.de/fhir/StructureDefinition/extracorporeal-membrane-oxygenation" ]
      },
      "identifier": [ {
        "system": "https://mein.krankenhaus.de/fhir/NamingSystem/procedureId",
        "value": "dcb2212c2adf33b1b1631cc664024fee69237ea08a4d2e9765275bbb07f62dfc"
      } ],
      "status": "in-progress",
      "category": {
        "coding": [ {
          "system": "http://snomed.info/sct",
          "code": "277132007",
          "display": "Therapeutic procedure (procedure)"
        } ]
      },
      "code": {
        "coding": [ {
          "system": "http://snomed.info/sct",
          "code": "233573008"
        } ],
        "text": "ECMO"
      },
      "subject": {
        "reference": "Patient/23181a6500d3ae927d7f6402ee977a97f126663668c1ce2c835edce1c88e4dc1"
      },
      "encounter": {
        "reference": "Encounter/808013c55b88a41f81bf9970776b008457c14e95b06414e36187a2214f8028a8"
      },
      "_performedDateTime": {
        "extension": [ {
          "url": "http://hl7.org/fhir/StructureDefinition/data-absent-reason",
          "valueCode": "unknown"
        } ]
      }
    },
    "request": {
      "method": "POST",
      "url": "Procedure",
      "ifNoneExist": "identifier=https://mein.krankenhaus.de/fhir/NamingSystem/procedureId|e085c0d874bec761e18a689659e29826cc601a3178e02ba8c82dd266fdc64dbf"
    }
  }, {
    "fullUrl": "Procedure/d420df2f9ee07efdcb2896f49c6836beac74d7bc79a5660e706a71d216e9df73",
    "resource": {
      "resourceType": "Procedure",
      "meta": {
        "profile": [ "https://www.netzwerk-universitaetsmedizin.de/fhir/StructureDefinition/respiratory-therapies" ]
      },
      "identifier": [ {
        "system": "https://mein.krankenhaus.de/fhir/NamingSystem/procedureId",
        "value": "cde8f4d246a980ad1c2cdb74ca28be6c4a0c7d8bd093863d3bfbe38fecf73f31"
      } ],
      "status": "not-done",
      "category": {
        "coding": [ {
          "system": "http://snomed.info/sct",
          "code": "277132007",
          "display": "Therapeutic procedure (procedure)"
        } ]
      },
      "code": {
        "coding": [ {
          "system": "http://snomed.info/sct",
          "code": "40617009",
          "display": "Artificial respiration (procedure)"
        } ]
      },
      "subject": {
        "reference": "Patient/23181a6500d3ae927d7f6402ee977a97f126663668c1ce2c835edce1c88e4dc1"
      },
      "encounter": {
        "reference": "Encounter/808013c55b88a41f81bf9970776b008457c14e95b06414e36187a2214f8028a8"
      },
      "_performedDateTime": {
        "extension": [ {
          "url": "http://hl7.org/fhir/StructureDefinition/data-absent-reason",
          "valueCode": "unknown"
        } ]
      }
    },
    "request": {
      "method": "POST",
      "url": "Procedure",
      "ifNoneExist": "identifier=https://mein.krankenhaus.de/fhir/NamingSystem/procedureId|d420df2f9ee07efdcb2896f49c6836beac74d7bc79a5660e706a71d216e9df73"
    }
  }, {
    "fullUrl": "Observation/60fd23e5588ca372d72833f80eeec3ef088299f3e3f8601562bbff93c8198772",
    "resource": {
      "resourceType": "Observation",
      "meta": {
        "profile": [ "https://www.netzwerk-universitaetsmedizin.de/fhir/StructureDefinition/patient-in-icu" ]
      },
      "identifier": [ {
        "system": "https://mein.krankenhaus.de/fhir/NamingSystem/observationId",
        "value": "941c4884f85350f86181c726d87512de6d334a440b47564831014ff5ac82ca82"
      } ],
      "status": "final",
      "category": [ {
        "coding": [ {
          "system": "http://terminology.hl7.org/CodeSystem/observation-category",
          "code": "survey",
          "display": "Survey"
        } ]
      } ],
      "code": {
        "coding": [ {
          "system": "https://www.netzwerk-universitaetsmedizin.de/fhir/CodeSystem/ecrf-parameter-codes",
          "code": "01",
          "display": "Is the patient in the intensive care unit?"
        } ]
      },
      "subject": {
        "reference": "Patient/23181a6500d3ae927d7f6402ee977a97f126663668c1ce2c835edce1c88e4dc1"
      },
      "encounter": {
        "reference": "Encounter/808013c55b88a41f81bf9970776b008457c14e95b06414e36187a2214f8028a8"
      },
      "_effectiveDateTime": {
        "extension": [ {
          "url": "http://hl7.org/fhir/StructureDefinition/data-absent-reason",
          "valueCode": "unknown"
        } ]
      },
      "valueCodeableConcept": {
        "coding": [ {
          "system": "http://snomed.info/sct",
          "code": "373066001"
        } ]
      }
    },
    "request": {
      "method": "POST",
      "url": "Observation",
      "ifNoneExist": "identifier=https://mein.krankenhaus.de/fhir/NamingSystem/observationId|60fd23e5588ca372d72833f80eeec3ef088299f3e3f8601562bbff93c8198772"
    }
  }, {
    "fullUrl": "Condition/fdaa5980b1d29550f8fd9a1c279a890804caaf3d08057f75f169c0c04e9fc741",
    "resource": {
      "resourceType": "Condition",
      "meta": {
        "profile": [ "https://www.netzwerk-universitaetsmedizin.de/fhir/StructureDefinition/dependence-on-ventilator" ]
      },
      "identifier": [ {
        "system": "https://mein.krankenhaus.de/fhir/NamingSystem/conditionId",
        "value": "c4077b8302a6f3a4ed6f2f978983e6507a3e4017fc745384e1fa6e8cfb72215b"
      } ],
      "clinicalStatus": {
        "coding": [ {
          "system": "http://terminology.hl7.org/CodeSystem/condition-clinical",
          "code": "active",
          "display": "Active"
        } ]
      },
      "verificationStatus": {
        "coding": [ {
          "system": "http://terminology.hl7.org/CodeSystem/condition-ver-status",
          "code": "confirmed",
          "display": "Confirmed"
        }, {
          "system": "http://snomed.info/sct",
          "code": "410605003",
          "display": "Confirmed present (qualifier value)"
        } ]
      },
      "category": [ {
        "coding": [ {
          "system": "http://snomed.info/sct",
          "code": "404989005",
          "display": "Ventilation status (observable entity)"
        } ]
      } ],
      "code": {
        "coding": [ {
          "system": "http://snomed.info/sct",
          "code": "444932008"
        } ]
      },
      "subject": {
        "reference": "Patient/23181a6500d3ae927d7f6402ee977a97f126663668c1ce2c835edce1c88e4dc1"
      },
      "encounter": {
        "reference": "Encounter/808013c55b88a41f81bf9970776b008457c14e95b06414e36187a2214f8028a8"
      },
      "_recordedDate": {
        "extension": [ {
          "url": "http://hl7.org/fhir/StructureDefinition/data-absent-reason",
          "valueCode": "unknown"
        } ]
      }
    },
    "request": {
      "method": "POST",
      "url": "Condition",
      "ifNoneExist": "identifier=https://mein.krankenhaus.de/fhir/NamingSystem/conditionId|fdaa5980b1d29550f8fd9a1c279a890804caaf3d08057f75f169c0c04e9fc741"
    }
  }, {
    "fullUrl": "Observation/1651ef2e525dd74eafc804435c2327170dcfe7459c9c182dfe210b0287e6b99e",
    "resource": {
      "resourceType": "Observation",
      "meta": {
        "profile": [ "https://www.netzwerk-universitaetsmedizin.de/fhir/StructureDefinition/discharge-disposition" ]
      },
      "identifier": [ {
        "type": {
          "coding": [ {
            "system": "http://terminology.hl7.org/CodeSystem/v2-0203",
            "code": "OBI",
            "display": "Observation Instance Identifier"
          } ]
        },
        "system": "https://mein.krankenhaus.de/fhir/NamingSystem/observationId",
        "value": "5f2cabd6252b6670712f820b4f0af37a3742fa54b5c9ab11df2bb0f0cc94adbd",
        "assigner": {
          "reference": "Organization/3a4f3433bce81181bad2d8e0b8fafccf7dc800bc06f29be73dcb38b750a48f9a"
        }
      } ],
      "status": "final",
      "category": [ {
        "coding": [ {
          "system": "http://terminology.hl7.org/CodeSystem/observation-category",
          "code": "social-history",
          "display": "Social History"
        } ]
      } ],
      "code": {
        "coding": [ {
          "system": "http://loinc.org",
          "code": "55128-3"
        } ],
        "text": "type of Discharge"
      },
      "subject": {
        "reference": "Patient/23181a6500d3ae927d7f6402ee977a97f126663668c1ce2c835edce1c88e4dc1"
      },
      "encounter": {
        "reference": "Encounter/808013c55b88a41f81bf9970776b008457c14e95b06414e36187a2214f8028a8"
      },
      "_effectiveDateTime": {
        "extension": [ {
          "url": "http://hl7.org/fhir/StructureDefinition/data-absent-reason",
          "valueCode": "unknown"
        } ]
      },
      "valueCodeableConcept": {
        "coding": [ {
          "system": "http://snomed.info/sct",
          "code": "261665006"
        } ]
      }
    },
    "request": {
      "method": "POST",
      "url": "Observation",
      "ifNoneExist": "identifier=https://mein.krankenhaus.de/fhir/NamingSystem/observationId|1651ef2e525dd74eafc804435c2327170dcfe7459c9c182dfe210b0287e6b99e"
    }
  }, {
    "fullUrl": "Observation/9e6b9b47ceda8e19c8213d0738cda4f697e3a2b2c4ef73ca9c34b66d714fbf96",
    "resource": {
      "resourceType": "Observation",
      "meta": {
        "profile": [ "https://www.netzwerk-universitaetsmedizin.de/fhir/StructureDefinition/sars-cov-2-rt-pcr" ]
      },
      "identifier": [ {
        "type": {
          "coding": [ {
            "system": "http://terminology.hl7.org/CodeSystem/v2-0203",
            "code": "OBI",
            "display": "Observation Instance Identifier"
          } ]
        },
        "system": "https://mein.krankenhaus.de/fhir/NamingSystem/observationId",
        "value": "6098aa9c58339fe56037e537fa75705c9ce5026db8a141cf738b40da5b672c43",
        "assigner": {
          "reference": "Organization/3a4f3433bce81181bad2d8e0b8fafccf7dc800bc06f29be73dcb38b750a48f9a"
        }
      } ],
      "status": "final",
      "category": [ {
        "coding": [ {
          "system": "http://terminology.hl7.org/CodeSystem/observation-category",
          "code": "laboratory",
          "display": "Laboratory"
        }, {
          "system": "http://loinc.org",
          "code": "26436-6",
          "display": "Laboratory studies (set)"
        } ]
      } ],
      "code": {
        "coding": [ {
          "system": "http://loinc.org",
          "code": "94500-6"
        } ]
      },
      "subject": {
        "reference": "Patient/23181a6500d3ae927d7f6402ee977a97f126663668c1ce2c835edce1c88e4dc1"
      },
      "encounter": {
        "reference": "Encounter/808013c55b88a41f81bf9970776b008457c14e95b06414e36187a2214f8028a8"
      },
      "_effectiveDateTime": {
        "extension": [ {
          "url": "http://hl7.org/fhir/StructureDefinition/data-absent-reason",
          "valueCode": "unknown"
        } ]
      },
      "valueCodeableConcept": {
        "coding": [ {
          "system": "http://snomed.info/sct",
          "code": "260415000"
        } ]
      }
    },
    "request": {
      "method": "POST",
      "url": "Observation",
      "ifNoneExist": "identifier=https://mein.krankenhaus.de/fhir/NamingSystem/observationId|9e6b9b47ceda8e19c8213d0738cda4f697e3a2b2c4ef73ca9c34b66d714fbf96"
    }
  }, {
    "fullUrl": "Observation/14d8abd00dfe0aa5771e061eddcbab2e52e472df29838f8af04b7cabb7bc3ba5",
    "resource": {
      "resourceType": "Observation",
      "meta": {
        "profile": [ "https://www.medizininformatik-initiative.de/fhir/core/modul-labor/StructureDefinition/ObservationLab" ]
      },
      "identifier": [ {
        "type": {
          "coding": [ {
            "system": "http://terminology.hl7.org/CodeSystem/v2-0203",
            "code": "OBI",
            "display": "Observation Instance Identifier"
          } ]
        },
        "system": "https://mein.krankenhaus.de/fhir/NamingSystem/observationId",
        "value": "902b3a6bf4a7e4eb6cb754bf17c9d2a6b3946b161934e19d5af5ceddd218bd02",
        "assigner": {
          "reference": "Organization/3a4f3433bce81181bad2d8e0b8fafccf7dc800bc06f29be73dcb38b750a48f9a"
        }
      } ],
      "status": "final",
      "category": [ {
        "coding": [ {
          "system": "http://terminology.hl7.org/CodeSystem/observation-category",
          "code": "laboratory",
          "display": "Laboratory"
        }, {
          "system": "http://loinc.org",
          "code": "26436-6"
        } ]
      } ],
      "code": {
        "coding": [ {
          "system": "http://loinc.org",
          "code": "76486-0",
          "display": "c-reactive-protein-in-serum-or-plasma-by-high-sensitivity-method"
        } ],
        "text": "crp"
      },
      "subject": {
        "reference": "Patient/23181a6500d3ae927d7f6402ee977a97f126663668c1ce2c835edce1c88e4dc1"
      },
      "encounter": {
        "reference": "Encounter/808013c55b88a41f81bf9970776b008457c14e95b06414e36187a2214f8028a8"
      },
      "effectiveDateTime": "2020-09-28T17:02:00+00:00",
      "valueQuantity": {
        "value": 42.77236710563489,
        "unit": "nmol/L",
        "system": "http://unitsofmeasure.org",
        "code": "nmol/L"
      }
    },
    "request": {
      "method": "POST",
      "url": "Observation",
      "ifNoneExist": "identifier=https://mein.krankenhaus.de/fhir/NamingSystem/observationId|14d8abd00dfe0aa5771e061eddcbab2e52e472df29838f8af04b7cabb7bc3ba5"
    }
  }, {
    "fullUrl": "Observation/946b6f1234bd8db7915dd990311d169d6ed0cf8c6678142df0b6f1fd318d2e44",
    "resource": {
      "resourceType": "Observation",
      "meta": {
        "profile": [ "https://www.medizininformatik-initiative.de/fhir/core/modul-labor/StructureDefinition/ObservationLab" ]
      },
      "identifier": [ {
        "type": {
          "coding": [ {
            "system": "http://terminology.hl7.org/CodeSystem/v2-0203",
            "code": "OBI",
            "display": "Observation Instance Identifier"
          } ]
        },
        "system": "https://mein.krankenhaus.de/fhir/NamingSystem/observationId",
        "value": "3b9d01a5c93cf69c55e2e8456e204c5406e636fea9f66e9f43e3b71cb6088841",
        "assigner": {
          "reference": "Organization/3a4f3433bce81181bad2d8e0b8fafccf7dc800bc06f29be73dcb38b750a48f9a"
        }
      } ],
      "status": "final",
      "category": [ {
        "coding": [ {
          "system": "http://terminology.hl7.org/CodeSystem/observation-category",
          "code": "laboratory",
          "display": "Laboratory"
        }, {
          "system": "http://loinc.org",
          "code": "26436-6"
        } ]
      } ],
      "code": {
        "coding": [ {
          "system": "http://loinc.org",
          "code": "14723-1",
          "display": "ferritin-in-serum-or-plasma"
        } ],
        "text": "ferritin"
      },
      "subject": {
        "reference": "Patient/23181a6500d3ae927d7f6402ee977a97f126663668c1ce2c835edce1c88e4dc1"
      },
      "encounter": {
        "reference": "Encounter/808013c55b88a41f81bf9970776b008457c14e95b06414e36187a2214f8028a8"
      },
      "effectiveDateTime": "2020-09-28T17:02:00+00:00",
      "valueQuantity": {
        "value": 32.74560717928227,
        "unit": "pmol/L",
        "system": "http://unitsofmeasure.org",
        "code": "pmol/L"
      }
    },
    "request": {
      "method": "POST",
      "url": "Observation",
      "ifNoneExist": "identifier=https://mein.krankenhaus.de/fhir/NamingSystem/observationId|946b6f1234bd8db7915dd990311d169d6ed0cf8c6678142df0b6f1fd318d2e44"
    }
  }, {
    "fullUrl": "Observation/cf880047bf8990f3a335043e2d6d99612e2336d630375f0f45733b2ea115bead",
    "resource": {
      "resourceType": "Observation",
      "meta": {
        "profile": [ "https://www.medizininformatik-initiative.de/fhir/core/modul-labor/StructureDefinition/ObservationLab" ]
      },
      "identifier": [ {
        "type": {
          "coding": [ {
            "system": "http://terminology.hl7.org/CodeSystem/v2-0203",
            "code": "OBI",
            "display": "Observation Instance Identifier"
          } ]
        },
        "system": "https://mein.krankenhaus.de/fhir/NamingSystem/observationId",
        "value": "672294cc13f618a30b51fbc4239760f61cc66832b70ae314654074df60a475c0",
        "assigner": {
          "reference": "Organization/3a4f3433bce81181bad2d8e0b8fafccf7dc800bc06f29be73dcb38b750a48f9a"
        }
      } ],
      "status": "final",
      "category": [ {
        "coding": [ {
          "system": "http://terminology.hl7.org/CodeSystem/observation-category",
          "code": "laboratory",
          "display": "Laboratory"
        }, {
          "system": "http://loinc.org",
          "code": "26436-6"
        } ]
      } ],
      "code": {
        "coding": [ {
          "system": "http://loinc.org",
          "code": "59828-4",
          "display": "bilirubin.total-in-venous-blood"
        } ],
        "text": "bilirubin"
      },
      "subject": {
        "reference": "Patient/23181a6500d3ae927d7f6402ee977a97f126663668c1ce2c835edce1c88e4dc1"
      },
      "encounter": {
        "reference": "Encounter/808013c55b88a41f81bf9970776b008457c14e95b06414e36187a2214f8028a8"
      },
      "effectiveDateTime": "2020-09-28T17:02:00+00:00",
      "valueQuantity": {
        "value": 94.46051490381822,
        "unit": "mg/dL",
        "system": "http://unitsofmeasure.org",
        "code": "mg/dL"
      }
    },
    "request": {
      "method": "POST",
      "url": "Observation",
      "ifNoneExist": "identifier=https://mein.krankenhaus.de/fhir/NamingSystem/observationId|cf880047bf8990f3a335043e2d6d99612e2336d630375f0f45733b2ea115bead"
    }
  }, {
    "fullUrl": "Observation/5dad75a8868a0debabf5cfe938bddb7cc408cc599996c7d0b18318f4b47492aa",
    "resource": {
      "resourceType": "Observation",
      "meta": {
        "profile": [ "https://www.medizininformatik-initiative.de/fhir/core/modul-labor/StructureDefinition/ObservationLab" ]
      },
      "identifier": [ {
        "type": {
          "coding": [ {
            "system": "http://terminology.hl7.org/CodeSystem/v2-0203",
            "code": "OBI",
            "display": "Observation Instance Identifier"
          } ]
        },
        "system": "https://mein.krankenhaus.de/fhir/NamingSystem/observationId",
        "value": "cfe94ab715c381d851dc98e13a790dc911562be47ca27cb5b8a4751894ec335d",
        "assigner": {
          "reference": "Organization/3a4f3433bce81181bad2d8e0b8fafccf7dc800bc06f29be73dcb38b750a48f9a"
        }
      } ],
      "status": "final",
      "category": [ {
        "coding": [ {
          "system": "http://terminology.hl7.org/CodeSystem/observation-category",
          "code": "laboratory",
          "display": "Laboratory"
        }, {
          "system": "http://loinc.org",
          "code": "26436-6"
        } ]
      } ],
      "code": {
        "coding": [ {
          "system": "http://loinc.org",
          "code": "48065-7",
          "display": "fibrin-d-dimer-feu-in-platelet-poor-plasma"
        } ],
        "text": "ddimer"
      },
      "subject": {
        "reference": "Patient/23181a6500d3ae927d7f6402ee977a97f126663668c1ce2c835edce1c88e4dc1"
      },
      "encounter": {
        "reference": "Encounter/808013c55b88a41f81bf9970776b008457c14e95b06414e36187a2214f8028a8"
      },
      "effectiveDateTime": "2020-09-28T17:02:00+00:00",
      "valueQuantity": {
        "value": 48.21459450079084,
        "unit": "ug/mL",
        "system": "http://unitsofmeasure.org",
        "code": "ug/mL"
      }
    },
    "request": {
      "method": "POST",
      "url": "Observation",
      "ifNoneExist": "identifier=https://mein.krankenhaus.de/fhir/NamingSystem/observationId|5dad75a8868a0debabf5cfe938bddb7cc408cc599996c7d0b18318f4b47492aa"
    }
  }, {
    "fullUrl": "Observation/008e83b727fd29b51fec91b4c6f99c01206a642479e8a8a78a3d1e128baa2420",
    "resource": {
      "resourceType": "Observation",
      "meta": {
        "profile": [ "https://www.medizininformatik-initiative.de/fhir/core/modul-labor/StructureDefinition/ObservationLab" ]
      },
      "identifier": [ {
        "type": {
          "coding": [ {
            "system": "http://terminology.hl7.org/CodeSystem/v2-0203",
            "code": "OBI",
            "display": "Observation Instance Identifier"
          } ]
        },
        "system": "https://mein.krankenhaus.de/fhir/NamingSystem/observationId",
        "value": "5b88be9cfc43c0d92b009e355fdbc0e98be24748358af321fef4cb17bb23a28c",
        "assigner": {
          "reference": "Organization/3a4f3433bce81181bad2d8e0b8fafccf7dc800bc06f29be73dcb38b750a48f9a"
        }
      } ],
      "status": "final",
      "category": [ {
        "coding": [ {
          "system": "http://terminology.hl7.org/CodeSystem/observation-category",
          "code": "laboratory",
          "display": "Laboratory"
        }, {
          "system": "http://loinc.org",
          "code": "26436-6"
        } ]
      } ],
      "code": {
        "coding": [ {
          "system": "http://loinc.org",
          "code": "2324-2",
          "display": "gamma-glutamyl-transferase-in-serum-or-plasma"
        } ],
        "text": "gammagt"
      },
      "subject": {
        "reference": "Patient/23181a6500d3ae927d7f6402ee977a97f126663668c1ce2c835edce1c88e4dc1"
      },
      "encounter": {
        "reference": "Encounter/808013c55b88a41f81bf9970776b008457c14e95b06414e36187a2214f8028a8"
      },
      "effectiveDateTime": "2020-09-28T17:02:00+00:00",
      "valueQuantity": {
        "value": 63.14803556875941,
        "unit": "U/L",
        "system": "http://unitsofmeasure.org",
        "code": "U/L"
      }
    },
    "request": {
      "method": "POST",
      "url": "Observation",
      "ifNoneExist": "identifier=https://mein.krankenhaus.de/fhir/NamingSystem/observationId|008e83b727fd29b51fec91b4c6f99c01206a642479e8a8a78a3d1e128baa2420"
    }
  }, {
    "fullUrl": "Observation/5fe90c6d10c92e3d712e8e3dd0747a47514725304e87c65092299835d0fbc4c4",
    "resource": {
      "resourceType": "Observation",
      "meta": {
        "profile": [ "https://www.medizininformatik-initiative.de/fhir/core/modul-labor/StructureDefinition/ObservationLab" ]
      },
      "identifier": [ {
        "type": {
          "coding": [ {
            "system": "http://terminology.hl7.org/CodeSystem/v2-0203",
            "code": "OBI",
            "display": "Observation Instance Identifier"
          } ]
        },
        "system": "https://mein.krankenhaus.de/fhir/NamingSystem/observationId",
        "value": "36a0b47610aaeddd67aaebe27a36635723c3f98c6116a4597569dc6d8cbf2b0f",
        "assigner": {
          "reference": "Organization/3a4f3433bce81181bad2d8e0b8fafccf7dc800bc06f29be73dcb38b750a48f9a"
        }
      } ],
      "status": "final",
      "category": [ {
        "coding": [ {
          "system": "http://terminology.hl7.org/CodeSystem/observation-category",
          "code": "laboratory",
          "display": "Laboratory"
        }, {
          "system": "http://loinc.org",
          "code": "26436-6"
        } ]
      } ],
      "code": {
        "coding": [ {
          "system": "http://loinc.org",
          "code": "1920-8",
          "display": "aspartate-aminotransferase-in-serum-or-plasma"
        } ],
        "text": "gotast"
      },
      "subject": {
        "reference": "Patient/23181a6500d3ae927d7f6402ee977a97f126663668c1ce2c835edce1c88e4dc1"
      },
      "encounter": {
        "reference": "Encounter/808013c55b88a41f81bf9970776b008457c14e95b06414e36187a2214f8028a8"
      },
      "effectiveDateTime": "2020-09-28T17:02:00+00:00",
      "valueQuantity": {
        "value": 12.29767354095368,
        "unit": "U/L",
        "system": "http://unitsofmeasure.org",
        "code": "U/L"
      }
    },
    "request": {
      "method": "POST",
      "url": "Observation",
      "ifNoneExist": "identifier=https://mein.krankenhaus.de/fhir/NamingSystem/observationId|5fe90c6d10c92e3d712e8e3dd0747a47514725304e87c65092299835d0fbc4c4"
    }
  }, {
    "fullUrl": "Observation/5f4b6759b66c975e16c9206cfffddb3feda64a882d30ba41452f5860619e7b36",
    "resource": {
      "resourceType": "Observation",
      "meta": {
        "profile": [ "https://www.medizininformatik-initiative.de/fhir/core/modul-labor/StructureDefinition/ObservationLab" ]
      },
      "identifier": [ {
        "type": {
          "coding": [ {
            "system": "http://terminology.hl7.org/CodeSystem/v2-0203",
            "code": "OBI",
            "display": "Observation Instance Identifier"
          } ]
        },
        "system": "https://mein.krankenhaus.de/fhir/NamingSystem/observationId",
        "value": "dd4e347931f86e59f9f188e5838087fd355122130e01fdd8627c14bf9aca1e31",
        "assigner": {
          "reference": "Organization/3a4f3433bce81181bad2d8e0b8fafccf7dc800bc06f29be73dcb38b750a48f9a"
        }
      } ],
      "status": "final",
      "category": [ {
        "coding": [ {
          "system": "http://terminology.hl7.org/CodeSystem/observation-category",
          "code": "laboratory",
          "display": "Laboratory"
        }, {
          "system": "http://loinc.org",
          "code": "26436-6"
        } ]
      } ],
      "code": {
        "coding": [ {
          "system": "http://loinc.org",
          "code": "2532-0",
          "display": "lactate-dehydrogenase-in-serum-or-plasma"
        } ],
        "text": "ldh"
      },
      "subject": {
        "reference": "Patient/23181a6500d3ae927d7f6402ee977a97f126663668c1ce2c835edce1c88e4dc1"
      },
      "encounter": {
        "reference": "Encounter/808013c55b88a41f81bf9970776b008457c14e95b06414e36187a2214f8028a8"
      },
      "effectiveDateTime": "2020-09-28T17:02:00+00:00",
      "valueQuantity": {
        "value": 36.877455952313944,
        "unit": "U/L",
        "system": "http://unitsofmeasure.org",
        "code": "U/L"
      }
    },
    "request": {
      "method": "POST",
      "url": "Observation",
      "ifNoneExist": "identifier=https://mein.krankenhaus.de/fhir/NamingSystem/observationId|5f4b6759b66c975e16c9206cfffddb3feda64a882d30ba41452f5860619e7b36"
    }
  }, {
    "fullUrl": "Observation/f3a9c193ed538cceacca976b2d1d2507e5555553e3adf71aa20ba5e1721c52ee",
    "resource": {
      "resourceType": "Observation",
      "meta": {
        "profile": [ "https://www.medizininformatik-initiative.de/fhir/core/modul-labor/StructureDefinition/ObservationLab" ]
      },
      "identifier": [ {
        "type": {
          "coding": [ {
            "system": "http://terminology.hl7.org/CodeSystem/v2-0203",
            "code": "OBI",
            "display": "Observation Instance Identifier"
          } ]
        },
        "system": "https://mein.krankenhaus.de/fhir/NamingSystem/observationId",
        "value": "8310c874d7de8fa789541770add81fdd09358fb6254caed7e22b49b8d4c6fcdb",
        "assigner": {
          "reference": "Organization/3a4f3433bce81181bad2d8e0b8fafccf7dc800bc06f29be73dcb38b750a48f9a"
        }
      } ],
      "status": "final",
      "category": [ {
        "coding": [ {
          "system": "http://terminology.hl7.org/CodeSystem/observation-category",
          "code": "laboratory",
          "display": "Laboratory"
        }, {
          "system": "http://loinc.org",
          "code": "26436-6"
        } ]
      } ],
      "code": {
        "coding": [ {
          "system": "http://loinc.org",
          "code": "76769-9"
        }, {
          "system": "http://loinc.org",
          "code": "718-7"
        }, {
          "system": "http://loinc.org",
          "code": "20509-6"
        }, {
          "system": "http://loinc.org",
          "code": "55782-7"
        }, {
          "system": "http://loinc.org",
          "code": "75928-2"
        }, {
          "system": "http://loinc.org",
          "code": "14775-1"
        }, {
          "system": "http://loinc.org",
          "code": "30313-1"
        }, {
          "system": "http://loinc.org",
          "code": "30350-3"
        }, {
          "system": "http://loinc.org",
          "code": "30351-1"
        }, {
          "system": "http://loinc.org",
          "code": "30352-9"
        }, {
          "system": "http://loinc.org",
          "code": "76768-1"
        }, {
          "system": "http://loinc.org",
          "code": "59260-0"
        } ],
        "text": "hamoglobin"
      },
      "subject": {
        "reference": "Patient/23181a6500d3ae927d7f6402ee977a97f126663668c1ce2c835edce1c88e4dc1"
      },
      "encounter": {
        "reference": "Encounter/808013c55b88a41f81bf9970776b008457c14e95b06414e36187a2214f8028a8"
      },
      "effectiveDateTime": "2020-09-28T17:02:00+00:00",
      "valueQuantity": {
        "value": 54.59973333632702,
        "unit": "g/dL",
        "system": "http://unitsofmeasure.org",
        "code": "g/dL"
      }
    },
    "request": {
      "method": "POST",
      "url": "Observation",
      "ifNoneExist": "identifier=https://mein.krankenhaus.de/fhir/NamingSystem/observationId|f3a9c193ed538cceacca976b2d1d2507e5555553e3adf71aa20ba5e1721c52ee"
    }
  }, {
    "fullUrl": "Observation/ee93e813f4b1e1c651aac2273ec2e6e587bfe4662487578a33a730c09898f740",
    "resource": {
      "resourceType": "Observation",
      "meta": {
        "profile": [ "https://www.medizininformatik-initiative.de/fhir/core/modul-labor/StructureDefinition/ObservationLab" ]
      },
      "identifier": [ {
        "type": {
          "coding": [ {
            "system": "http://terminology.hl7.org/CodeSystem/v2-0203",
            "code": "OBI",
            "display": "Observation Instance Identifier"
          } ]
        },
        "system": "https://mein.krankenhaus.de/fhir/NamingSystem/observationId",
        "value": "d699b22533c03ebc186ec0c169739274d2f479654d9012d46a9687c4c38f99b9",
        "assigner": {
          "reference": "Organization/3a4f3433bce81181bad2d8e0b8fafccf7dc800bc06f29be73dcb38b750a48f9a"
        }
      } ],
      "status": "final",
      "category": [ {
        "coding": [ {
          "system": "http://terminology.hl7.org/CodeSystem/observation-category",
          "code": "laboratory",
          "display": "Laboratory"
        }, {
          "system": "http://loinc.org",
          "code": "26436-6"
        } ]
      } ],
      "code": {
        "coding": [ {
          "system": "http://loinc.org",
          "code": "12190-5",
          "display": "creatinine-in-body-fluid"
        } ],
        "text": "kreatinin"
      },
      "subject": {
        "reference": "Patient/23181a6500d3ae927d7f6402ee977a97f126663668c1ce2c835edce1c88e4dc1"
      },
      "encounter": {
        "reference": "Encounter/808013c55b88a41f81bf9970776b008457c14e95b06414e36187a2214f8028a8"
      },
      "effectiveDateTime": "2020-09-28T17:02:00+00:00",
      "valueQuantity": {
        "value": 55.8394588521395,
        "unit": "mg/L",
        "system": "http://unitsofmeasure.org",
        "code": "mg/L"
      }
    },
    "request": {
      "method": "POST",
      "url": "Observation",
      "ifNoneExist": "identifier=https://mein.krankenhaus.de/fhir/NamingSystem/observationId|ee93e813f4b1e1c651aac2273ec2e6e587bfe4662487578a33a730c09898f740"
    }
  }, {
    "fullUrl": "Observation/7bac241e5ce26e8a66766d92db5b2323a8557685293eaa7e170e7fc4db8996b4",
    "resource": {
      "resourceType": "Observation",
      "meta": {
        "profile": [ "https://www.medizininformatik-initiative.de/fhir/core/modul-labor/StructureDefinition/ObservationLab" ]
      },
      "identifier": [ {
        "type": {
          "coding": [ {
            "system": "http://terminology.hl7.org/CodeSystem/v2-0203",
            "code": "OBI",
            "display": "Observation Instance Identifier"
          } ]
        },
        "system": "https://mein.krankenhaus.de/fhir/NamingSystem/observationId",
        "value": "53ad5c848d3231e32ef62b6e7332c8b88a703140f797c439739424ee21d06d6e",
        "assigner": {
          "reference": "Organization/3a4f3433bce81181bad2d8e0b8fafccf7dc800bc06f29be73dcb38b750a48f9a"
        }
      } ],
      "status": "final",
      "category": [ {
        "coding": [ {
          "system": "http://terminology.hl7.org/CodeSystem/observation-category",
          "code": "laboratory",
          "display": "Laboratory"
        }, {
          "system": "http://loinc.org",
          "code": "26436-6"
        } ]
      } ],
      "code": {
        "coding": [ {
          "system": "http://loinc.org",
          "code": "59032-3",
          "display": "lactate-in-blood"
        } ],
        "text": "laktat"
      },
      "subject": {
        "reference": "Patient/23181a6500d3ae927d7f6402ee977a97f126663668c1ce2c835edce1c88e4dc1"
      },
      "encounter": {
        "reference": "Encounter/808013c55b88a41f81bf9970776b008457c14e95b06414e36187a2214f8028a8"
      },
      "effectiveDateTime": "2020-09-28T17:02:00+00:00",
      "valueQuantity": {
        "value": 86.77108579759508,
        "unit": "mg/dL",
        "system": "http://unitsofmeasure.org",
        "code": "mg/dL"
      }
    },
    "request": {
      "method": "POST",
      "url": "Observation",
      "ifNoneExist": "identifier=https://mein.krankenhaus.de/fhir/NamingSystem/observationId|7bac241e5ce26e8a66766d92db5b2323a8557685293eaa7e170e7fc4db8996b4"
    }
  }, {
    "fullUrl": "Observation/adccb496bed6dd64cd8891422033b38d957429a6097363aec7065162631bb03e",
    "resource": {
      "resourceType": "Observation",
      "meta": {
        "profile": [ "https://www.medizininformatik-initiative.de/fhir/core/modul-labor/StructureDefinition/ObservationLab" ]
      },
      "identifier": [ {
        "type": {
          "coding": [ {
            "system": "http://terminology.hl7.org/CodeSystem/v2-0203",
            "code": "OBI",
            "display": "Observation Instance Identifier"
          } ]
        },
        "system": "https://mein.krankenhaus.de/fhir/NamingSystem/observationId",
        "value": "17e877ad9d1fb2029006d01a9c8000627e314faab1950f0d44a2bbaae5a7f00e",
        "assigner": {
          "reference": "Organization/3a4f3433bce81181bad2d8e0b8fafccf7dc800bc06f29be73dcb38b750a48f9a"
        }
      } ],
      "status": "final",
      "category": [ {
        "coding": [ {
          "system": "http://terminology.hl7.org/CodeSystem/observation-category",
          "code": "laboratory",
          "display": "Laboratory"
        }, {
          "system": "http://loinc.org",
          "code": "26436-6"
        } ]
      } ],
      "code": {
        "coding": [ {
          "system": "http://loinc.org",
          "code": "804-5",
          "display": "leukocytes-in-blood-by-manual-count"
        } ],
        "text": "leukozyten_absolut"
      },
      "subject": {
        "reference": "Patient/23181a6500d3ae927d7f6402ee977a97f126663668c1ce2c835edce1c88e4dc1"
      },
      "encounter": {
        "reference": "Encounter/808013c55b88a41f81bf9970776b008457c14e95b06414e36187a2214f8028a8"
      },
      "effectiveDateTime": "2020-09-28T17:02:00+00:00",
      "valueQuantity": {
        "value": 98.60011835978824,
        "unit": "10*3/uL",
        "system": "http://unitsofmeasure.org",
        "code": "10*3/uL"
      }
    },
    "request": {
      "method": "POST",
      "url": "Observation",
      "ifNoneExist": "identifier=https://mein.krankenhaus.de/fhir/NamingSystem/observationId|adccb496bed6dd64cd8891422033b38d957429a6097363aec7065162631bb03e"
    }
  }, {
    "fullUrl": "Observation/04f206883fbe2308f9ece1ca1ac0cdcb42a13e47129529e236a9bcae9df98b30",
    "resource": {
      "resourceType": "Observation",
      "meta": {
        "profile": [ "https://www.medizininformatik-initiative.de/fhir/core/modul-labor/StructureDefinition/ObservationLab" ]
      },
      "identifier": [ {
        "type": {
          "coding": [ {
            "system": "http://terminology.hl7.org/CodeSystem/v2-0203",
            "code": "OBI",
            "display": "Observation Instance Identifier"
          } ]
        },
        "system": "https://mein.krankenhaus.de/fhir/NamingSystem/observationId",
        "value": "bbfae265c12a4013651fdd18edf99f92091778aae536fb5808de1671ae049df6",
        "assigner": {
          "reference": "Organization/3a4f3433bce81181bad2d8e0b8fafccf7dc800bc06f29be73dcb38b750a48f9a"
        }
      } ],
      "status": "final",
      "category": [ {
        "coding": [ {
          "system": "http://terminology.hl7.org/CodeSystem/observation-category",
          "code": "laboratory",
          "display": "Laboratory"
        }, {
          "system": "http://loinc.org",
          "code": "26436-6"
        } ]
      } ],
      "code": {
        "coding": [ {
          "system": "http://loinc.org",
          "code": "26499-4",
          "display": "neutrophils-in-blood"
        } ],
        "text": "neutrophile_absolut"
      },
      "subject": {
        "reference": "Patient/23181a6500d3ae927d7f6402ee977a97f126663668c1ce2c835edce1c88e4dc1"
      },
      "encounter": {
        "reference": "Encounter/808013c55b88a41f81bf9970776b008457c14e95b06414e36187a2214f8028a8"
      },
      "effectiveDateTime": "2020-09-28T17:02:00+00:00",
      "valueQuantity": {
        "value": 8.593880175416357,
        "unit": "10*3/uL",
        "system": "http://unitsofmeasure.org",
        "code": "10*3/uL"
      }
    },
    "request": {
      "method": "POST",
      "url": "Observation",
      "ifNoneExist": "identifier=https://mein.krankenhaus.de/fhir/NamingSystem/observationId|04f206883fbe2308f9ece1ca1ac0cdcb42a13e47129529e236a9bcae9df98b30"
    }
  }, {
    "fullUrl": "Observation/043e79ffe8fdd214382a1d86be43efc1775838295ed4077384c491e8c20a7ce8",
    "resource": {
      "resourceType": "Observation",
      "meta": {
        "profile": [ "https://www.medizininformatik-initiative.de/fhir/core/modul-labor/StructureDefinition/ObservationLab" ]
      },
      "identifier": [ {
        "type": {
          "coding": [ {
            "system": "http://terminology.hl7.org/CodeSystem/v2-0203",
            "code": "OBI",
            "display": "Observation Instance Identifier"
          } ]
        },
        "system": "https://mein.krankenhaus.de/fhir/NamingSystem/observationId",
        "value": "7934fe3e7c4d25cb14a83950fcbe5a9d7a116aa289c0ea10ec8c5351b6eec118",
        "assigner": {
          "reference": "Organization/3a4f3433bce81181bad2d8e0b8fafccf7dc800bc06f29be73dcb38b750a48f9a"
        }
      } ],
      "status": "final",
      "category": [ {
        "coding": [ {
          "system": "http://terminology.hl7.org/CodeSystem/observation-category",
          "code": "laboratory",
          "display": "Laboratory"
        }, {
          "system": "http://loinc.org",
          "code": "26436-6"
        } ]
      } ],
      "code": {
        "coding": [ {
          "system": "http://loinc.org",
          "code": "16631-4",
          "display": "aptt-in-blood-by-coagulation-11-saline"
        } ],
        "text": "ptt"
      },
      "subject": {
        "reference": "Patient/23181a6500d3ae927d7f6402ee977a97f126663668c1ce2c835edce1c88e4dc1"
      },
      "encounter": {
        "reference": "Encounter/808013c55b88a41f81bf9970776b008457c14e95b06414e36187a2214f8028a8"
      },
      "effectiveDateTime": "2020-09-28T17:02:00+00:00",
      "valueQuantity": {
        "value": 30.739338674634343,
        "unit": "s",
        "system": "http://unitsofmeasure.org",
        "code": "s"
      }
    },
    "request": {
      "method": "POST",
      "url": "Observation",
      "ifNoneExist": "identifier=https://mein.krankenhaus.de/fhir/NamingSystem/observationId|043e79ffe8fdd214382a1d86be43efc1775838295ed4077384c491e8c20a7ce8"
    }
  }, {
    "fullUrl": "Observation/d5896b8187d03159797004867aa86d186b346c19bc8d81113063037c24f5cfa4",
    "resource": {
      "resourceType": "Observation",
      "meta": {
        "profile": [ "https://www.medizininformatik-initiative.de/fhir/core/modul-labor/StructureDefinition/ObservationLab" ]
      },
      "identifier": [ {
        "type": {
          "coding": [ {
            "system": "http://terminology.hl7.org/CodeSystem/v2-0203",
            "code": "OBI",
            "display": "Observation Instance Identifier"
          } ]
        },
        "system": "https://mein.krankenhaus.de/fhir/NamingSystem/observationId",
        "value": "e7fcbf3b6570026aa7cf246faefb67097a9b8a70ba5b3eec5e9fc15617bf6a2e",
        "assigner": {
          "reference": "Organization/3a4f3433bce81181bad2d8e0b8fafccf7dc800bc06f29be73dcb38b750a48f9a"
        }
      } ],
      "status": "final",
      "category": [ {
        "coding": [ {
          "system": "http://terminology.hl7.org/CodeSystem/observation-category",
          "code": "laboratory",
          "display": "Laboratory"
        }, {
          "system": "http://loinc.org",
          "code": "26436-6"
        } ]
      } ],
      "code": {
        "coding": [ {
          "system": "http://loinc.org",
          "code": "778-1",
          "display": "platelets-in-blood-by-manual-count"
        } ],
        "text": "thrombozyten_absolut"
      },
      "subject": {
        "reference": "Patient/23181a6500d3ae927d7f6402ee977a97f126663668c1ce2c835edce1c88e4dc1"
      },
      "encounter": {
        "reference": "Encounter/808013c55b88a41f81bf9970776b008457c14e95b06414e36187a2214f8028a8"
      },
      "effectiveDateTime": "2020-09-28T17:02:00+00:00",
      "valueQuantity": {
        "value": 4.3607879777516345,
        "unit": "10*3/uL",
        "system": "http://unitsofmeasure.org",
        "code": "10*3/uL"
      }
    },
    "request": {
      "method": "POST",
      "url": "Observation",
      "ifNoneExist": "identifier=https://mein.krankenhaus.de/fhir/NamingSystem/observationId|d5896b8187d03159797004867aa86d186b346c19bc8d81113063037c24f5cfa4"
    }
  }, {
    "fullUrl": "Observation/7af818d54cb4861e69f21bda0ba1ede5d278c23359cd5c3e3825ea3a0a50dce5",
    "resource": {
      "resourceType": "Observation",
      "meta": {
        "profile": [ "https://www.medizininformatik-initiative.de/fhir/core/modul-labor/StructureDefinition/ObservationLab" ]
      },
      "identifier": [ {
        "type": {
          "coding": [ {
            "system": "http://terminology.hl7.org/CodeSystem/v2-0203",
            "code": "OBI",
            "display": "Observation Instance Identifier"
          } ]
        },
        "system": "https://mein.krankenhaus.de/fhir/NamingSystem/observationId",
        "value": "ca10af9056b79eaf07ea18c3ccd6df20b456a439e69941c1ae7052cc74f2ab75",
        "assigner": {
          "reference": "Organization/3a4f3433bce81181bad2d8e0b8fafccf7dc800bc06f29be73dcb38b750a48f9a"
        }
      } ],
      "status": "final",
      "category": [ {
        "coding": [ {
          "system": "http://terminology.hl7.org/CodeSystem/observation-category",
          "code": "laboratory",
          "display": "Laboratory"
        }, {
          "system": "http://loinc.org",
          "code": "26436-6"
        } ]
      } ],
      "code": {
        "coding": [ {
          "system": "http://loinc.org",
          "code": "6301-6",
          "display": "inr-in-platelet-poor-plasma-by-coagulation-assay"
        } ],
        "text": "inr"
      },
      "subject": {
        "reference": "Patient/23181a6500d3ae927d7f6402ee977a97f126663668c1ce2c835edce1c88e4dc1"
      },
      "encounter": {
        "reference": "Encounter/808013c55b88a41f81bf9970776b008457c14e95b06414e36187a2214f8028a8"
      },
      "effectiveDateTime": "2020-09-28T17:02:00+00:00",
      "valueQuantity": {
        "value": 72.10213712702395,
        "unit": "{INR}",
        "system": "http://unitsofmeasure.org",
        "code": "{INR}"
      }
    },
    "request": {
      "method": "POST",
      "url": "Observation",
      "ifNoneExist": "identifier=https://mein.krankenhaus.de/fhir/NamingSystem/observationId|7af818d54cb4861e69f21bda0ba1ede5d278c23359cd5c3e3825ea3a0a50dce5"
    }
  }, {
    "fullUrl": "Observation/c9b781cbc71b35e8014893264fcccba061d1f45e128293d257da575da8b8f9d3",
    "resource": {
      "resourceType": "Observation",
      "meta": {
        "profile": [ "https://www.medizininformatik-initiative.de/fhir/core/modul-labor/StructureDefinition/ObservationLab" ]
      },
      "identifier": [ {
        "type": {
          "coding": [ {
            "system": "http://terminology.hl7.org/CodeSystem/v2-0203",
            "code": "OBI",
            "display": "Observation Instance Identifier"
          } ]
        },
        "system": "https://mein.krankenhaus.de/fhir/NamingSystem/observationId",
        "value": "ad925c850f205b340c6aaa1387d064b0103d8998667791097e85083209cfbfd5",
        "assigner": {
          "reference": "Organization/3a4f3433bce81181bad2d8e0b8fafccf7dc800bc06f29be73dcb38b750a48f9a"
        }
      } ],
      "status": "final",
      "category": [ {
        "coding": [ {
          "system": "http://terminology.hl7.org/CodeSystem/observation-category",
          "code": "laboratory",
          "display": "Laboratory"
        }, {
          "system": "http://loinc.org",
          "code": "26436-6"
        } ]
      } ],
      "code": {
        "coding": [ {
          "system": "http://loinc.org",
          "code": "27812-7",
          "display": "antithrombin-ag-actual-normal-in-platelet-poor-plasma-by-immunoassay"
        } ],
        "text": "antithrombin_iii"
      },
      "subject": {
        "reference": "Patient/23181a6500d3ae927d7f6402ee977a97f126663668c1ce2c835edce1c88e4dc1"
      },
      "encounter": {
        "reference": "Encounter/808013c55b88a41f81bf9970776b008457c14e95b06414e36187a2214f8028a8"
      },
      "effectiveDateTime": "2020-09-28T17:02:00+00:00",
      "valueQuantity": {
        "value": 96.6209097115122,
        "unit": "%",
        "system": "http://unitsofmeasure.org",
        "code": "%"
      }
    },
    "request": {
      "method": "POST",
      "url": "Observation",
      "ifNoneExist": "identifier=https://mein.krankenhaus.de/fhir/NamingSystem/observationId|c9b781cbc71b35e8014893264fcccba061d1f45e128293d257da575da8b8f9d3"
    }
  }, {
    "fullUrl": "Observation/cd44a489e84c2009dd4df460166b5b47c2c474966c9d8a7cddca3ef05e5f69a6",
    "resource": {
      "resourceType": "Observation",
      "meta": {
        "profile": [ "https://www.medizininformatik-initiative.de/fhir/core/modul-labor/StructureDefinition/ObservationLab" ]
      },
      "identifier": [ {
        "type": {
          "coding": [ {
            "system": "http://terminology.hl7.org/CodeSystem/v2-0203",
            "code": "OBI",
            "display": "Observation Instance Identifier"
          } ]
        },
        "system": "https://mein.krankenhaus.de/fhir/NamingSystem/observationId",
        "value": "5821321a8c4644fbe0364d212704def153aee6a17849bb8f43ae6ecea809eb5f",
        "assigner": {
          "reference": "Organization/3a4f3433bce81181bad2d8e0b8fafccf7dc800bc06f29be73dcb38b750a48f9a"
        }
      } ],
      "status": "final",
      "category": [ {
        "coding": [ {
          "system": "http://terminology.hl7.org/CodeSystem/observation-category",
          "code": "laboratory",
          "display": "Laboratory"
        }, {
          "system": "http://loinc.org",
          "code": "26436-6"
        } ]
      } ],
      "code": {
        "coding": [ {
          "system": "http://loinc.org",
          "code": "33959-8",
          "display": "procalcitonin-in-serum-or-plasma"
        } ],
        "text": "pct_procalcitonin"
      },
      "subject": {
        "reference": "Patient/23181a6500d3ae927d7f6402ee977a97f126663668c1ce2c835edce1c88e4dc1"
      },
      "encounter": {
        "reference": "Encounter/808013c55b88a41f81bf9970776b008457c14e95b06414e36187a2214f8028a8"
      },
      "effectiveDateTime": "2020-09-28T17:02:00+00:00",
      "valueQuantity": {
        "value": 46.21562538328161,
        "unit": "ng/mL",
        "system": "http://unitsofmeasure.org",
        "code": "ng/mL"
      }
    },
    "request": {
      "method": "POST",
      "url": "Observation",
      "ifNoneExist": "identifier=https://mein.krankenhaus.de/fhir/NamingSystem/observationId|cd44a489e84c2009dd4df460166b5b47c2c474966c9d8a7cddca3ef05e5f69a6"
    }
  }, {
    "fullUrl": "Observation/5bd4e5c4ae862a505aa75e8ba6dc858424f9d3a5d207601b8f1f0b3631642a86",
    "resource": {
      "resourceType": "Observation",
      "meta": {
        "profile": [ "https://www.medizininformatik-initiative.de/fhir/core/modul-labor/StructureDefinition/ObservationLab" ]
      },
      "identifier": [ {
        "type": {
          "coding": [ {
            "system": "http://terminology.hl7.org/CodeSystem/v2-0203",
            "code": "OBI",
            "display": "Observation Instance Identifier"
          } ]
        },
        "system": "https://mein.krankenhaus.de/fhir/NamingSystem/observationId",
        "value": "07b0fce8b7837e4b8f356fb113eaa69698846ed811fe510c20b48b26ff419156",
        "assigner": {
          "reference": "Organization/3a4f3433bce81181bad2d8e0b8fafccf7dc800bc06f29be73dcb38b750a48f9a"
        }
      } ],
      "status": "final",
      "category": [ {
        "coding": [ {
          "system": "http://terminology.hl7.org/CodeSystem/observation-category",
          "code": "laboratory",
          "display": "Laboratory"
        }, {
          "system": "http://loinc.org",
          "code": "26436-6"
        } ]
      } ],
      "code": {
        "coding": [ {
          "system": "http://loinc.org",
          "code": "49732-1",
          "display": "interleukin-6-in-body-fluid"
        } ],
        "text": "il6_interleukin_6"
      },
      "subject": {
        "reference": "Patient/23181a6500d3ae927d7f6402ee977a97f126663668c1ce2c835edce1c88e4dc1"
      },
      "encounter": {
        "reference": "Encounter/808013c55b88a41f81bf9970776b008457c14e95b06414e36187a2214f8028a8"
      },
      "effectiveDateTime": "2020-09-28T17:02:00+00:00",
      "valueQuantity": {
        "value": 46.44187556461734,
        "unit": "pg/mL",
        "system": "http://unitsofmeasure.org",
        "code": "pg/mL"
      }
    },
    "request": {
      "method": "POST",
      "url": "Observation",
      "ifNoneExist": "identifier=https://mein.krankenhaus.de/fhir/NamingSystem/observationId|5bd4e5c4ae862a505aa75e8ba6dc858424f9d3a5d207601b8f1f0b3631642a86"
    }
  }, {
    "fullUrl": "Observation/a3938eecac6927a33a22ee54f96c417b87c0cc2a11892b993fdbae8f49c5af1f",
    "resource": {
      "resourceType": "Observation",
      "meta": {
        "profile": [ "https://www.medizininformatik-initiative.de/fhir/core/modul-labor/StructureDefinition/ObservationLab" ]
      },
      "identifier": [ {
        "type": {
          "coding": [ {
            "system": "http://terminology.hl7.org/CodeSystem/v2-0203",
            "code": "OBI",
            "display": "Observation Instance Identifier"
          } ]
        },
        "system": "https://mein.krankenhaus.de/fhir/NamingSystem/observationId",
        "value": "c769db5d3101317ffb1389f04862fa955928ccd71a9a65d4b1555e41ebeddff6",
        "assigner": {
          "reference": "Organization/3a4f3433bce81181bad2d8e0b8fafccf7dc800bc06f29be73dcb38b750a48f9a"
        }
      } ],
      "status": "final",
      "category": [ {
        "coding": [ {
          "system": "http://terminology.hl7.org/CodeSystem/observation-category",
          "code": "laboratory",
          "display": "Laboratory"
        }, {
          "system": "http://loinc.org",
          "code": "26436-6"
        } ]
      } ],
      "code": {
        "coding": [ {
          "system": "http://loinc.org",
          "code": "33762-6",
          "display": "natriuretic-peptide.b-prohormone-n-terminal-in-serum-or-plasma"
        } ],
        "text": "ntprobnp"
      },
      "subject": {
        "reference": "Patient/23181a6500d3ae927d7f6402ee977a97f126663668c1ce2c835edce1c88e4dc1"
      },
      "encounter": {
        "reference": "Encounter/808013c55b88a41f81bf9970776b008457c14e95b06414e36187a2214f8028a8"
      },
      "effectiveDateTime": "2020-09-28T17:02:00+00:00",
      "valueQuantity": {
        "value": 92.77592166971542,
        "unit": "pg/mL",
        "system": "http://unitsofmeasure.org",
        "code": "pg/mL"
      }
    },
    "request": {
      "method": "POST",
      "url": "Observation",
      "ifNoneExist": "identifier=https://mein.krankenhaus.de/fhir/NamingSystem/observationId|a3938eecac6927a33a22ee54f96c417b87c0cc2a11892b993fdbae8f49c5af1f"
    }
  }, {
    "fullUrl": "Observation/a5e15b2df475a07826351b0a5480a73092eb09cb0a980db0d5f9deac852b6be2",
    "resource": {
      "resourceType": "Observation",
      "meta": {
        "profile": [ "https://www.medizininformatik-initiative.de/fhir/core/modul-labor/StructureDefinition/ObservationLab" ]
      },
      "identifier": [ {
        "type": {
          "coding": [ {
            "system": "http://terminology.hl7.org/CodeSystem/v2-0203",
            "code": "OBI",
            "display": "Observation Instance Identifier"
          } ]
        },
        "system": "https://mein.krankenhaus.de/fhir/NamingSystem/observationId",
        "value": "46e0b45e3c98ac3b9e3c640270748767bd8493d917159e527627e6996a68d702",
        "assigner": {
          "reference": "Organization/3a4f3433bce81181bad2d8e0b8fafccf7dc800bc06f29be73dcb38b750a48f9a"
        }
      } ],
      "status": "final",
      "category": [ {
        "coding": [ {
          "system": "http://terminology.hl7.org/CodeSystem/observation-category",
          "code": "laboratory",
          "display": "Laboratory"
        }, {
          "system": "http://loinc.org",
          "code": "26436-6"
        } ]
      } ],
      "code": {
        "coding": [ {
          "system": "http://loinc.org",
          "code": "48664-7",
          "display": "fibrinogen-in-platelet-poor-plasma-by-coagulation.derived"
        } ],
        "text": "fibrinogen"
      },
      "subject": {
        "reference": "Patient/23181a6500d3ae927d7f6402ee977a97f126663668c1ce2c835edce1c88e4dc1"
      },
      "encounter": {
        "reference": "Encounter/808013c55b88a41f81bf9970776b008457c14e95b06414e36187a2214f8028a8"
      },
      "effectiveDateTime": "2020-09-28T17:02:00+00:00",
      "valueQuantity": {
        "value": 73.87347154825392,
        "unit": "mg/dL",
        "system": "http://unitsofmeasure.org",
        "code": "mg/dL"
      }
    },
    "request": {
      "method": "POST",
      "url": "Observation",
      "ifNoneExist": "identifier=https://mein.krankenhaus.de/fhir/NamingSystem/observationId|a5e15b2df475a07826351b0a5480a73092eb09cb0a980db0d5f9deac852b6be2"
    }
  }, {
    "fullUrl": "Observation/0c4414528b4aab193700cd1a45c279a63759e6e4f3608a9b18a4094ab1971bbe",
    "resource": {
      "resourceType": "Observation",
      "meta": {
        "profile": [ "https://www.netzwerk-universitaetsmedizin.de/fhir/StructureDefinition/sars-cov-2-rt-pcr" ]
      },
      "identifier": [ {
        "type": {
          "coding": [ {
            "system": "http://terminology.hl7.org/CodeSystem/v2-0203",
            "code": "OBI",
            "display": "Observation Instance Identifier"
          } ]
        },
        "system": "https://mein.krankenhaus.de/fhir/NamingSystem/observationId",
        "value": "66331386f604b19967c57655272128147ee862cc19b6bb31fb8e6ddbe7c0b00f",
        "assigner": {
          "reference": "Organization/3a4f3433bce81181bad2d8e0b8fafccf7dc800bc06f29be73dcb38b750a48f9a"
        }
      } ],
      "status": "final",
      "category": [ {
        "coding": [ {
          "system": "http://terminology.hl7.org/CodeSystem/observation-category",
          "code": "laboratory",
          "display": "Laboratory"
        }, {
          "system": "http://loinc.org",
          "code": "26436-6"
        } ]
      } ],
      "code": {
        "coding": [ {
          "system": "http://loinc.org",
          "code": "94500-6",
          "display": "sars-cov-2-covid-19-rna-in-respiratory-specimen-by-naa-with-probe-detection"
        } ],
        "text": "SARS-CoV-2-RNA (PCR)"
      },
      "subject": {
        "reference": "Patient/23181a6500d3ae927d7f6402ee977a97f126663668c1ce2c835edce1c88e4dc1"
      },
      "encounter": {
        "reference": "Encounter/808013c55b88a41f81bf9970776b008457c14e95b06414e36187a2214f8028a8"
      },
      "effectiveDateTime": "2020-09-28T17:02:00+00:00",
      "valueCodeableConcept": {
        "coding": [ {
          "system": "http://snomed.info/sct",
          "code": "260373001",
          "display": "Detected (qualifier value)"
        } ],
        "text": "SARS-CoV-2-RNA positiv"
      }
    },
    "request": {
      "method": "POST",
      "url": "Observation",
      "ifNoneExist": "identifier=https://mein.krankenhaus.de/fhir/NamingSystem/observationId|0c4414528b4aab193700cd1a45c279a63759e6e4f3608a9b18a4094ab1971bbe"
    }
  }, {
    "fullUrl": "Observation/6a7b44324e9ae5574404bb2ac4d852f06a5de654f6ae3025dadb1d21a9fb0ce5",
    "resource": {
      "resourceType": "Observation",
      "meta": {
        "profile": [ "https://www.netzwerk-universitaetsmedizin.de/fhir/StructureDefinition/sars-cov-2-ab-pnl-ser-pl-ia" ]
      },
      "identifier": [ {
        "type": {
          "coding": [ {
            "system": "http://terminology.hl7.org/CodeSystem/v2-0203",
            "code": "OBI",
            "display": "Observation Instance Identifier"
          } ]
        },
        "system": "https://mein.krankenhaus.de/fhir/NamingSystem/observationId",
        "value": "321d3cace43fc6999657651dfc88184bd38e0a9d6a5f8fdb41f9ff7dded4d417",
        "assigner": {
          "reference": "Organization/3a4f3433bce81181bad2d8e0b8fafccf7dc800bc06f29be73dcb38b750a48f9a"
        }
      } ],
      "status": "final",
      "category": [ {
        "coding": [ {
          "system": "http://terminology.hl7.org/CodeSystem/observation-category",
          "code": "laboratory",
          "display": "Laboratory"
        }, {
          "system": "http://loinc.org",
          "code": "26436-6"
        } ]
      } ],
      "code": {
        "coding": [ {
          "system": "http://loinc.org",
          "code": "94504-8"
        } ],
        "text": "sarsco_v2_covid19_ab_pnl"
      },
      "subject": {
        "reference": "Patient/23181a6500d3ae927d7f6402ee977a97f126663668c1ce2c835edce1c88e4dc1"
      },
      "encounter": {
        "reference": "Encounter/808013c55b88a41f81bf9970776b008457c14e95b06414e36187a2214f8028a8"
      },
      "effectiveDateTime": "2020-09-28T17:02:00+00:00",
      "hasMember": [ {
        "reference": "Observation/9adfbb05cfc1d07e928933097ac59b9237e7836d2b3b2335eee7c5dd8fbe0fe7"
      }, {
        "reference": "Observation/42004dbab3ac0e26a1bb954e2ca98b340c9e84b3969c25a5774989403f576501"
      }, {
        "reference": "Observation/907b631f5cc071af3025c5a961b34971c1f60874417047484dd32f791789acae"
      }, {
        "reference": "Observation/631f81ce038b28a8af25eb6adc0e87b047c4086af5eaa7a8d4f0fac35c6b5804"
      }, {
        "reference": "Observation/7b40ed4e354ec103ab2a955c97427d35830a08621ac56f04392b22ddf839bf63"
      }, {
        "reference": "Observation/eef316c227f11d00ac5588632e15980274013ddc369c650f3309ee95d2c7a0bf"
      } ]
    },
    "request": {
      "method": "POST",
      "url": "Observation",
      "ifNoneExist": "identifier=https://mein.krankenhaus.de/fhir/NamingSystem/observationId|6a7b44324e9ae5574404bb2ac4d852f06a5de654f6ae3025dadb1d21a9fb0ce5"
    }
  }, {
    "fullUrl": "Observation/9adfbb05cfc1d07e928933097ac59b9237e7836d2b3b2335eee7c5dd8fbe0fe7",
    "resource": {
      "resourceType": "Observation",
      "meta": {
        "profile": [ "https://www.netzwerk-universitaetsmedizin.de/fhir/StructureDefinition/sars-cov-2-ab-ser-pl-ql-ia" ]
      },
      "identifier": [ {
        "type": {
          "coding": [ {
            "system": "http://terminology.hl7.org/CodeSystem/v2-0203",
            "code": "OBI",
            "display": "Observation Instance Identifier"
          } ]
        },
        "system": "https://mein.krankenhaus.de/fhir/NamingSystem/observationId",
        "value": "4868cdb2d10e7f7b934eb1260e483717b553d36d3a8bf32def04fa4c7d926a0e",
        "assigner": {
          "reference": "Organization/3a4f3433bce81181bad2d8e0b8fafccf7dc800bc06f29be73dcb38b750a48f9a"
        }
      } ],
      "status": "final",
      "category": [ {
        "coding": [ {
          "system": "http://terminology.hl7.org/CodeSystem/observation-category",
          "code": "laboratory",
          "display": "Laboratory"
        }, {
          "system": "http://loinc.org",
          "code": "26436-6"
        } ]
      } ],
      "code": {
        "coding": [ {
          "system": "http://loinc.org",
          "code": "94762-2",
          "display": "sars-cov-2-covid-19-ab-in-serum-or-plasma-by-immunoassay"
        } ],
        "text": "sarsco_v2_covid19_ab_ia_ql"
      },
      "subject": {
        "reference": "Patient/23181a6500d3ae927d7f6402ee977a97f126663668c1ce2c835edce1c88e4dc1"
      },
      "encounter": {
        "reference": "Encounter/808013c55b88a41f81bf9970776b008457c14e95b06414e36187a2214f8028a8"
      },
      "effectiveDateTime": "2020-09-28T17:02:00+00:00",
      "valueCodeableConcept": {
        "coding": [ {
          "system": "http://snomed.info/sct",
          "code": "260373001"
        } ]
      }
    },
    "request": {
      "method": "POST",
      "url": "Observation",
      "ifNoneExist": "identifier=https://mein.krankenhaus.de/fhir/NamingSystem/observationId|9adfbb05cfc1d07e928933097ac59b9237e7836d2b3b2335eee7c5dd8fbe0fe7"
    }
  }, {
    "fullUrl": "Observation/42004dbab3ac0e26a1bb954e2ca98b340c9e84b3969c25a5774989403f576501",
    "resource": {
      "resourceType": "Observation",
      "meta": {
        "profile": [ "https://www.netzwerk-universitaetsmedizin.de/fhir/StructureDefinition/sars-cov-2-ab-ser-pl-ia-acnc" ]
      },
      "identifier": [ {
        "type": {
          "coding": [ {
            "system": "http://terminology.hl7.org/CodeSystem/v2-0203",
            "code": "OBI",
            "display": "Observation Instance Identifier"
          } ]
        },
        "system": "https://mein.krankenhaus.de/fhir/NamingSystem/observationId",
        "value": "cec8be5d87130a641a974d849d53fc97e912e452f5e86d5487d7e6a402614ae0",
        "assigner": {
          "reference": "Organization/3a4f3433bce81181bad2d8e0b8fafccf7dc800bc06f29be73dcb38b750a48f9a"
        }
      } ],
      "status": "final",
      "category": [ {
        "coding": [ {
          "system": "http://terminology.hl7.org/CodeSystem/observation-category",
          "code": "laboratory",
          "display": "Laboratory"
        }, {
          "system": "http://loinc.org",
          "code": "26436-6"
        } ]
      } ],
      "code": {
        "coding": [ {
          "system": "http://loinc.org",
          "code": "94769-7",
          "display": "sars-cov-2-covid-19-ab-in-serum-or-plasma-by-immunoassay"
        } ],
        "text": "sarsco_v2_covid19_ab_ia_qn"
      },
      "subject": {
        "reference": "Patient/23181a6500d3ae927d7f6402ee977a97f126663668c1ce2c835edce1c88e4dc1"
      },
      "encounter": {
        "reference": "Encounter/808013c55b88a41f81bf9970776b008457c14e95b06414e36187a2214f8028a8"
      },
      "effectiveDateTime": "2020-09-28T17:02:00+00:00",
      "valueQuantity": {
        "value": 43.60176945780826,
        "unit": "[IU]/mL",
        "system": "http://unitsofmeasure.org",
        "code": "[IU]/mL"
      }
    },
    "request": {
      "method": "POST",
      "url": "Observation",
      "ifNoneExist": "identifier=https://mein.krankenhaus.de/fhir/NamingSystem/observationId|42004dbab3ac0e26a1bb954e2ca98b340c9e84b3969c25a5774989403f576501"
    }
  }, {
    "fullUrl": "Observation/907b631f5cc071af3025c5a961b34971c1f60874417047484dd32f791789acae",
    "resource": {
      "resourceType": "Observation",
      "meta": {
        "profile": [ "https://www.netzwerk-universitaetsmedizin.de/fhir/StructureDefinition/sars-cov-2-iga-ser-pl-ia-acnc" ]
      },
      "identifier": [ {
        "type": {
          "coding": [ {
            "system": "http://terminology.hl7.org/CodeSystem/v2-0203",
            "code": "OBI",
            "display": "Observation Instance Identifier"
          } ]
        },
        "system": "https://mein.krankenhaus.de/fhir/NamingSystem/observationId",
        "value": "de8ff3a570a7ae29242cca7e88a48a09c2ce8a9bc00fe464a0ed59834a52f729",
        "assigner": {
          "reference": "Organization/3a4f3433bce81181bad2d8e0b8fafccf7dc800bc06f29be73dcb38b750a48f9a"
        }
      } ],
      "status": "final",
      "category": [ {
        "coding": [ {
          "system": "http://terminology.hl7.org/CodeSystem/observation-category",
          "code": "laboratory",
          "display": "Laboratory"
        }, {
          "system": "http://loinc.org",
          "code": "26436-6"
        } ]
      } ],
      "code": {
        "coding": [ {
          "system": "http://loinc.org",
          "code": "94720-0",
          "display": "sars-cov-2-covid-19-iga-ab-in-serum-or-plasma-by-immunoassay"
        } ],
        "text": "sarsco_v2_covid19_ig_a_ia_qn"
      },
      "subject": {
        "reference": "Patient/23181a6500d3ae927d7f6402ee977a97f126663668c1ce2c835edce1c88e4dc1"
      },
      "encounter": {
        "reference": "Encounter/808013c55b88a41f81bf9970776b008457c14e95b06414e36187a2214f8028a8"
      },
      "effectiveDateTime": "2020-09-28T17:02:00+00:00",
      "valueQuantity": {
        "value": 33.56586114009211,
        "unit": "[IU]/mL",
        "system": "http://unitsofmeasure.org",
        "code": "[IU]/mL"
      }
    },
    "request": {
      "method": "POST",
      "url": "Observation",
      "ifNoneExist": "identifier=https://mein.krankenhaus.de/fhir/NamingSystem/observationId|907b631f5cc071af3025c5a961b34971c1f60874417047484dd32f791789acae"
    }
  }, {
    "fullUrl": "Observation/631f81ce038b28a8af25eb6adc0e87b047c4086af5eaa7a8d4f0fac35c6b5804",
    "resource": {
      "resourceType": "Observation",
      "meta": {
        "profile": [ "https://www.netzwerk-universitaetsmedizin.de/fhir/StructureDefinition/sars-cov-2-igg-ser-pl-ql-ia" ]
      },
      "identifier": [ {
        "type": {
          "coding": [ {
            "system": "http://terminology.hl7.org/CodeSystem/v2-0203",
            "code": "OBI",
            "display": "Observation Instance Identifier"
          } ]
        },
        "system": "https://mein.krankenhaus.de/fhir/NamingSystem/observationId",
        "value": "ae144dc1b19e759a3440cc1606f119b184eacea135101f463b928a438d3669e4",
        "assigner": {
          "reference": "Organization/3a4f3433bce81181bad2d8e0b8fafccf7dc800bc06f29be73dcb38b750a48f9a"
        }
      } ],
      "status": "final",
      "category": [ {
        "coding": [ {
          "system": "http://terminology.hl7.org/CodeSystem/observation-category",
          "code": "laboratory",
          "display": "Laboratory"
        }, {
          "system": "http://loinc.org",
          "code": "26436-6"
        } ]
      } ],
      "code": {
        "coding": [ {
          "system": "http://loinc.org",
          "code": "94563-4",
          "display": "sars-cov-2-covid-19-igg-ab-in-serum-or-plasma-by-immunoassay"
        } ],
        "text": "sarsco_v2_covid19_ig_g_ia_ql"
      },
      "subject": {
        "reference": "Patient/23181a6500d3ae927d7f6402ee977a97f126663668c1ce2c835edce1c88e4dc1"
      },
      "encounter": {
        "reference": "Encounter/808013c55b88a41f81bf9970776b008457c14e95b06414e36187a2214f8028a8"
      },
      "effectiveDateTime": "2020-09-28T17:02:00+00:00",
      "valueCodeableConcept": {
        "coding": [ {
          "system": "http://snomed.info/sct",
          "code": "260415000"
        } ]
      }
    },
    "request": {
      "method": "POST",
      "url": "Observation",
      "ifNoneExist": "identifier=https://mein.krankenhaus.de/fhir/NamingSystem/observationId|631f81ce038b28a8af25eb6adc0e87b047c4086af5eaa7a8d4f0fac35c6b5804"
    }
  }, {
    "fullUrl": "Observation/7b40ed4e354ec103ab2a955c97427d35830a08621ac56f04392b22ddf839bf63",
    "resource": {
      "resourceType": "Observation",
      "meta": {
        "profile": [ "https://www.netzwerk-universitaetsmedizin.de/fhir/StructureDefinition/sars-cov-2-igm-ser-pl-ql-ia" ]
      },
      "identifier": [ {
        "type": {
          "coding": [ {
            "system": "http://terminology.hl7.org/CodeSystem/v2-0203",
            "code": "OBI",
            "display": "Observation Instance Identifier"
          } ]
        },
        "system": "https://mein.krankenhaus.de/fhir/NamingSystem/observationId",
        "value": "9ff99a6391e105d9c094978f460f05e99729a30d27436f97be874d9327c90edb",
        "assigner": {
          "reference": "Organization/3a4f3433bce81181bad2d8e0b8fafccf7dc800bc06f29be73dcb38b750a48f9a"
        }
      } ],
      "status": "final",
      "category": [ {
        "coding": [ {
          "system": "http://terminology.hl7.org/CodeSystem/observation-category",
          "code": "laboratory",
          "display": "Laboratory"
        }, {
          "system": "http://loinc.org",
          "code": "26436-6"
        } ]
      } ],
      "code": {
        "coding": [ {
          "system": "http://loinc.org",
          "code": "94564-2",
          "display": "sars-cov-2-covid-19-igm-ab-in-serum-or-plasma-by-immunoassay"
        } ],
        "text": "sarsco_v2_covid19_ig_m_ia_ql"
      },
      "subject": {
        "reference": "Patient/23181a6500d3ae927d7f6402ee977a97f126663668c1ce2c835edce1c88e4dc1"
      },
      "encounter": {
        "reference": "Encounter/808013c55b88a41f81bf9970776b008457c14e95b06414e36187a2214f8028a8"
      },
      "effectiveDateTime": "2020-09-28T17:02:00+00:00",
      "valueCodeableConcept": {
        "coding": [ {
          "system": "http://snomed.info/sct",
          "code": "260415000"
        } ]
      }
    },
    "request": {
      "method": "POST",
      "url": "Observation",
      "ifNoneExist": "identifier=https://mein.krankenhaus.de/fhir/NamingSystem/observationId|7b40ed4e354ec103ab2a955c97427d35830a08621ac56f04392b22ddf839bf63"
    }
  }, {
    "fullUrl": "Observation/eef316c227f11d00ac5588632e15980274013ddc369c650f3309ee95d2c7a0bf",
    "resource": {
      "resourceType": "Observation",
      "meta": {
        "profile": [ "https://www.netzwerk-universitaetsmedizin.de/fhir/StructureDefinition/sars-cov-2-igm-ser-pl-ia-acnc" ]
      },
      "identifier": [ {
        "type": {
          "coding": [ {
            "system": "http://terminology.hl7.org/CodeSystem/v2-0203",
            "code": "OBI",
            "display": "Observation Instance Identifier"
          } ]
        },
        "system": "https://mein.krankenhaus.de/fhir/NamingSystem/observationId",
        "value": "8b7676e30b2f3513d9ec9b80f7d316304c7fa08b11e3604e3fdf16ae70e9700b",
        "assigner": {
          "reference": "Organization/3a4f3433bce81181bad2d8e0b8fafccf7dc800bc06f29be73dcb38b750a48f9a"
        }
      } ],
      "status": "final",
      "category": [ {
        "coding": [ {
          "system": "http://terminology.hl7.org/CodeSystem/observation-category",
          "code": "laboratory",
          "display": "Laboratory"
        }, {
          "system": "http://loinc.org",
          "code": "26436-6"
        } ]
      } ],
      "code": {
        "coding": [ {
          "system": "http://loinc.org",
          "code": "94506-3",
          "display": "sars-cov-2-covid-19-igm-ab-in-serum-or-plasma-by-immunoassay"
        } ],
        "text": "sarsco_v2_covid19_ig_m_ia_qn"
      },
      "subject": {
        "reference": "Patient/23181a6500d3ae927d7f6402ee977a97f126663668c1ce2c835edce1c88e4dc1"
      },
      "encounter": {
        "reference": "Encounter/808013c55b88a41f81bf9970776b008457c14e95b06414e36187a2214f8028a8"
      },
      "effectiveDateTime": "2020-09-28T17:02:00+00:00",
      "valueQuantity": {
        "value": 51.783688204617974,
        "unit": "[arb'U]/mL",
        "system": "http://unitsofmeasure.org",
        "code": "[arb'U]/mL"
      }
    },
    "request": {
      "method": "POST",
      "url": "Observation",
      "ifNoneExist": "identifier=https://mein.krankenhaus.de/fhir/NamingSystem/observationId|eef316c227f11d00ac5588632e15980274013ddc369c650f3309ee95d2c7a0bf"
    }
  }, {
    "fullUrl": "Observation/007290bf93974aee1cda3b848225395e6b7ded23f734bda6d4874f21d8567294",
    "resource": {
      "resourceType": "Observation",
      "meta": {
        "profile": [ "https://www.medizininformatik-initiative.de/fhir/core/modul-labor/StructureDefinition/ObservationLab" ]
      },
      "identifier": [ {
        "type": {
          "coding": [ {
            "system": "http://terminology.hl7.org/CodeSystem/v2-0203",
            "code": "OBI",
            "display": "Observation Instance Identifier"
          } ]
        },
        "system": "https://mein.krankenhaus.de/fhir/NamingSystem/observationId",
        "value": "f520d1c06ba1eb397a8e0e4741220aadafdfd180c9f129f90d75fb9ddaa51a93",
        "assigner": {
          "reference": "Organization/3a4f3433bce81181bad2d8e0b8fafccf7dc800bc06f29be73dcb38b750a48f9a"
        }
      } ],
      "status": "final",
      "category": [ {
        "coding": [ {
          "system": "http://terminology.hl7.org/CodeSystem/observation-category",
          "code": "laboratory",
          "display": "Laboratory"
        }, {
          "system": "http://loinc.org",
          "code": "26436-6"
        } ]
      } ],
      "code": {
        "coding": [ {
          "system": "http://loinc.org",
          "code": "76486-0",
          "display": "c-reactive-protein-in-serum-or-plasma-by-high-sensitivity-method"
        } ],
        "text": "crp"
      },
      "subject": {
        "reference": "Patient/23181a6500d3ae927d7f6402ee977a97f126663668c1ce2c835edce1c88e4dc1"
      },
      "encounter": {
        "reference": "Encounter/808013c55b88a41f81bf9970776b008457c14e95b06414e36187a2214f8028a8"
      },
      "effectiveDateTime": "2020-08-20T19:13:00+00:00",
      "valueQuantity": {
        "value": 34.28059380176553,
        "unit": "nmol/L",
        "system": "http://unitsofmeasure.org",
        "code": "nmol/L"
      }
    },
    "request": {
      "method": "POST",
      "url": "Observation",
      "ifNoneExist": "identifier=https://mein.krankenhaus.de/fhir/NamingSystem/observationId|007290bf93974aee1cda3b848225395e6b7ded23f734bda6d4874f21d8567294"
    }
  }, {
    "fullUrl": "Observation/42542e7408d5f6a6c2759025eb64eeb2fe59e9c0c2be1dc431a35f179340f6b6",
    "resource": {
      "resourceType": "Observation",
      "meta": {
        "profile": [ "https://www.medizininformatik-initiative.de/fhir/core/modul-labor/StructureDefinition/ObservationLab" ]
      },
      "identifier": [ {
        "type": {
          "coding": [ {
            "system": "http://terminology.hl7.org/CodeSystem/v2-0203",
            "code": "OBI",
            "display": "Observation Instance Identifier"
          } ]
        },
        "system": "https://mein.krankenhaus.de/fhir/NamingSystem/observationId",
        "value": "57e7dc6566b06df09f58b92760d657587326ec5d37e7df82c3582aac1d5a0351",
        "assigner": {
          "reference": "Organization/3a4f3433bce81181bad2d8e0b8fafccf7dc800bc06f29be73dcb38b750a48f9a"
        }
      } ],
      "status": "final",
      "category": [ {
        "coding": [ {
          "system": "http://terminology.hl7.org/CodeSystem/observation-category",
          "code": "laboratory",
          "display": "Laboratory"
        }, {
          "system": "http://loinc.org",
          "code": "26436-6"
        } ]
      } ],
      "code": {
        "coding": [ {
          "system": "http://loinc.org",
          "code": "24373-3",
          "display": "ferritin-in-blood"
        } ],
        "text": "ferritin"
      },
      "subject": {
        "reference": "Patient/23181a6500d3ae927d7f6402ee977a97f126663668c1ce2c835edce1c88e4dc1"
      },
      "encounter": {
        "reference": "Encounter/808013c55b88a41f81bf9970776b008457c14e95b06414e36187a2214f8028a8"
      },
      "effectiveDateTime": "2020-08-20T19:13:00+00:00",
      "valueQuantity": {
        "value": 87.87257683265958,
        "unit": "ng/mL",
        "system": "http://unitsofmeasure.org",
        "code": "ng/mL"
      }
    },
    "request": {
      "method": "POST",
      "url": "Observation",
      "ifNoneExist": "identifier=https://mein.krankenhaus.de/fhir/NamingSystem/observationId|42542e7408d5f6a6c2759025eb64eeb2fe59e9c0c2be1dc431a35f179340f6b6"
    }
  }, {
    "fullUrl": "Observation/3e9a705231a635b0c4088ad53f13c17d99d328351875afb05e5d04eda5169e95",
    "resource": {
      "resourceType": "Observation",
      "meta": {
        "profile": [ "https://www.medizininformatik-initiative.de/fhir/core/modul-labor/StructureDefinition/ObservationLab" ]
      },
      "identifier": [ {
        "type": {
          "coding": [ {
            "system": "http://terminology.hl7.org/CodeSystem/v2-0203",
            "code": "OBI",
            "display": "Observation Instance Identifier"
          } ]
        },
        "system": "https://mein.krankenhaus.de/fhir/NamingSystem/observationId",
        "value": "8fd9e5a3033f32c74f8c5568984e2b8e80da97a22a648bfe319e439a638cb155",
        "assigner": {
          "reference": "Organization/3a4f3433bce81181bad2d8e0b8fafccf7dc800bc06f29be73dcb38b750a48f9a"
        }
      } ],
      "status": "final",
      "category": [ {
        "coding": [ {
          "system": "http://terminology.hl7.org/CodeSystem/observation-category",
          "code": "laboratory",
          "display": "Laboratory"
        }, {
          "system": "http://loinc.org",
          "code": "26436-6"
        } ]
      } ],
      "code": {
        "coding": [ {
          "system": "http://loinc.org",
          "code": "14631-6",
          "display": "bilirubin.total-in-serum-or-plasma"
        } ],
        "text": "bilirubin"
      },
      "subject": {
        "reference": "Patient/23181a6500d3ae927d7f6402ee977a97f126663668c1ce2c835edce1c88e4dc1"
      },
      "encounter": {
        "reference": "Encounter/808013c55b88a41f81bf9970776b008457c14e95b06414e36187a2214f8028a8"
      },
      "effectiveDateTime": "2020-08-20T19:13:00+00:00",
      "valueQuantity": {
        "value": 83.79001827207735,
        "unit": "umol/L",
        "system": "http://unitsofmeasure.org",
        "code": "umol/L"
      }
    },
    "request": {
      "method": "POST",
      "url": "Observation",
      "ifNoneExist": "identifier=https://mein.krankenhaus.de/fhir/NamingSystem/observationId|3e9a705231a635b0c4088ad53f13c17d99d328351875afb05e5d04eda5169e95"
    }
  }, {
    "fullUrl": "Observation/f68329696cbb1cf0d1d3813eab4c5180001001aa8c3314392c1fe873e009c6b5",
    "resource": {
      "resourceType": "Observation",
      "meta": {
        "profile": [ "https://www.medizininformatik-initiative.de/fhir/core/modul-labor/StructureDefinition/ObservationLab" ]
      },
      "identifier": [ {
        "type": {
          "coding": [ {
            "system": "http://terminology.hl7.org/CodeSystem/v2-0203",
            "code": "OBI",
            "display": "Observation Instance Identifier"
          } ]
        },
        "system": "https://mein.krankenhaus.de/fhir/NamingSystem/observationId",
        "value": "a0855649b2486cc21799f8eeac66c863b488dfcb2f0e063c54fab6dc1a207440",
        "assigner": {
          "reference": "Organization/3a4f3433bce81181bad2d8e0b8fafccf7dc800bc06f29be73dcb38b750a48f9a"
        }
      } ],
      "status": "final",
      "category": [ {
        "coding": [ {
          "system": "http://terminology.hl7.org/CodeSystem/observation-category",
          "code": "laboratory",
          "display": "Laboratory"
        }, {
          "system": "http://loinc.org",
          "code": "26436-6"
        } ]
      } ],
      "code": {
        "coding": [ {
          "system": "http://loinc.org",
          "code": "71427-9",
          "display": "fibrin-d-dimer-feu-in-blood-by-immunoassay"
        } ],
        "text": "ddimer"
      },
      "subject": {
        "reference": "Patient/23181a6500d3ae927d7f6402ee977a97f126663668c1ce2c835edce1c88e4dc1"
      },
      "encounter": {
        "reference": "Encounter/808013c55b88a41f81bf9970776b008457c14e95b06414e36187a2214f8028a8"
      },
      "effectiveDateTime": "2020-08-20T19:13:00+00:00",
      "valueQuantity": {
        "value": 33.89877494472566,
        "unit": "ug/mL{FEU}",
        "system": "http://unitsofmeasure.org",
        "code": "ug/mL{FEU}"
      }
    },
    "request": {
      "method": "POST",
      "url": "Observation",
      "ifNoneExist": "identifier=https://mein.krankenhaus.de/fhir/NamingSystem/observationId|f68329696cbb1cf0d1d3813eab4c5180001001aa8c3314392c1fe873e009c6b5"
    }
  }, {
    "fullUrl": "Observation/4f39e78db9911172b07e2c94f1b7d32c078bc88f04af0ca85e0e5688202c1796",
    "resource": {
      "resourceType": "Observation",
      "meta": {
        "profile": [ "https://www.medizininformatik-initiative.de/fhir/core/modul-labor/StructureDefinition/ObservationLab" ]
      },
      "identifier": [ {
        "type": {
          "coding": [ {
            "system": "http://terminology.hl7.org/CodeSystem/v2-0203",
            "code": "OBI",
            "display": "Observation Instance Identifier"
          } ]
        },
        "system": "https://mein.krankenhaus.de/fhir/NamingSystem/observationId",
        "value": "59afb56b2c75a0cb554110980bc3151be0b723be49fb45c059d7146cd1d66d78",
        "assigner": {
          "reference": "Organization/3a4f3433bce81181bad2d8e0b8fafccf7dc800bc06f29be73dcb38b750a48f9a"
        }
      } ],
      "status": "final",
      "category": [ {
        "coding": [ {
          "system": "http://terminology.hl7.org/CodeSystem/observation-category",
          "code": "laboratory",
          "display": "Laboratory"
        }, {
          "system": "http://loinc.org",
          "code": "26436-6"
        } ]
      } ],
      "code": {
        "coding": [ {
          "system": "http://loinc.org",
          "code": "2325-9",
          "display": "gamma-glutamyl-transferase-aspartate-aminotransferase-in-serum-or-plasma"
        } ],
        "text": "gammagt"
      },
      "subject": {
        "reference": "Patient/23181a6500d3ae927d7f6402ee977a97f126663668c1ce2c835edce1c88e4dc1"
      },
      "encounter": {
        "reference": "Encounter/808013c55b88a41f81bf9970776b008457c14e95b06414e36187a2214f8028a8"
      },
      "effectiveDateTime": "2020-08-20T19:13:00+00:00",
      "valueQuantity": {
        "value": 14.017778903020172,
        "unit": "U/L",
        "system": "http://unitsofmeasure.org",
        "code": "U/L"
      }
    },
    "request": {
      "method": "POST",
      "url": "Observation",
      "ifNoneExist": "identifier=https://mein.krankenhaus.de/fhir/NamingSystem/observationId|4f39e78db9911172b07e2c94f1b7d32c078bc88f04af0ca85e0e5688202c1796"
    }
  }, {
    "fullUrl": "Observation/5b962f98dc8587b9fbe3dc5876501be7f40060829de75f35af43f2b831cf77c1",
    "resource": {
      "resourceType": "Observation",
      "meta": {
        "profile": [ "https://www.medizininformatik-initiative.de/fhir/core/modul-labor/StructureDefinition/ObservationLab" ]
      },
      "identifier": [ {
        "type": {
          "coding": [ {
            "system": "http://terminology.hl7.org/CodeSystem/v2-0203",
            "code": "OBI",
            "display": "Observation Instance Identifier"
          } ]
        },
        "system": "https://mein.krankenhaus.de/fhir/NamingSystem/observationId",
        "value": "afa0748378c6d2228d70e4c91d6715965e970077ac381c524a13353f8f6d41d8",
        "assigner": {
          "reference": "Organization/3a4f3433bce81181bad2d8e0b8fafccf7dc800bc06f29be73dcb38b750a48f9a"
        }
      } ],
      "status": "final",
      "category": [ {
        "coding": [ {
          "system": "http://terminology.hl7.org/CodeSystem/observation-category",
          "code": "laboratory",
          "display": "Laboratory"
        }, {
          "system": "http://loinc.org",
          "code": "26436-6"
        } ]
      } ],
      "code": {
        "coding": [ {
          "system": "http://loinc.org",
          "code": "30239-8",
          "display": "aspartate-aminotransferase-in-serum-or-plasma-by-with-p-5-p"
        } ],
        "text": "gotast"
      },
      "subject": {
        "reference": "Patient/23181a6500d3ae927d7f6402ee977a97f126663668c1ce2c835edce1c88e4dc1"
      },
      "encounter": {
        "reference": "Encounter/808013c55b88a41f81bf9970776b008457c14e95b06414e36187a2214f8028a8"
      },
      "effectiveDateTime": "2020-08-20T19:13:00+00:00",
      "valueQuantity": {
        "value": 22.52899235360846,
        "unit": "U/L",
        "system": "http://unitsofmeasure.org",
        "code": "U/L"
      }
    },
    "request": {
      "method": "POST",
      "url": "Observation",
      "ifNoneExist": "identifier=https://mein.krankenhaus.de/fhir/NamingSystem/observationId|5b962f98dc8587b9fbe3dc5876501be7f40060829de75f35af43f2b831cf77c1"
    }
  }, {
    "fullUrl": "Observation/419792ffa0e9a986e399881bd508ccd11852a4ec781a12928b12bb9bf9a8661a",
    "resource": {
      "resourceType": "Observation",
      "meta": {
        "profile": [ "https://www.medizininformatik-initiative.de/fhir/core/modul-labor/StructureDefinition/ObservationLab" ]
      },
      "identifier": [ {
        "type": {
          "coding": [ {
            "system": "http://terminology.hl7.org/CodeSystem/v2-0203",
            "code": "OBI",
            "display": "Observation Instance Identifier"
          } ]
        },
        "system": "https://mein.krankenhaus.de/fhir/NamingSystem/observationId",
        "value": "79db2f8b6ffc53d5299ca9ddc4cd3dd17084142b18973931f35005639a3e56d3",
        "assigner": {
          "reference": "Organization/3a4f3433bce81181bad2d8e0b8fafccf7dc800bc06f29be73dcb38b750a48f9a"
        }
      } ],
      "status": "final",
      "category": [ {
        "coding": [ {
          "system": "http://terminology.hl7.org/CodeSystem/observation-category",
          "code": "laboratory",
          "display": "Laboratory"
        }, {
          "system": "http://loinc.org",
          "code": "26436-6"
        } ]
      } ],
      "code": {
        "coding": [ {
          "system": "http://loinc.org",
          "code": "6597-9",
          "display": "troponin-t.cardiac-in-venous-blood"
        } ],
        "text": "kardiale_troponine"
      },
      "subject": {
        "reference": "Patient/23181a6500d3ae927d7f6402ee977a97f126663668c1ce2c835edce1c88e4dc1"
      },
      "encounter": {
        "reference": "Encounter/808013c55b88a41f81bf9970776b008457c14e95b06414e36187a2214f8028a8"
      },
      "effectiveDateTime": "2020-08-20T19:13:00+00:00",
      "valueQuantity": {
        "value": 89.76577948666072,
        "unit": "ug/L",
        "system": "http://unitsofmeasure.org",
        "code": "ug/L"
      }
    },
    "request": {
      "method": "POST",
      "url": "Observation",
      "ifNoneExist": "identifier=https://mein.krankenhaus.de/fhir/NamingSystem/observationId|419792ffa0e9a986e399881bd508ccd11852a4ec781a12928b12bb9bf9a8661a"
    }
  }, {
    "fullUrl": "Observation/604b91c0910fe51e566b2826dea2f5b410830768330b547ab57dbc18dd6c0fa0",
    "resource": {
      "resourceType": "Observation",
      "meta": {
        "profile": [ "https://www.medizininformatik-initiative.de/fhir/core/modul-labor/StructureDefinition/ObservationLab" ]
      },
      "identifier": [ {
        "type": {
          "coding": [ {
            "system": "http://terminology.hl7.org/CodeSystem/v2-0203",
            "code": "OBI",
            "display": "Observation Instance Identifier"
          } ]
        },
        "system": "https://mein.krankenhaus.de/fhir/NamingSystem/observationId",
        "value": "c03aa51dd01fa4548db6d3238bfa3e88da2fa71b843ac6ed129260cb30a8ac1f",
        "assigner": {
          "reference": "Organization/3a4f3433bce81181bad2d8e0b8fafccf7dc800bc06f29be73dcb38b750a48f9a"
        }
      } ],
      "status": "final",
      "category": [ {
        "coding": [ {
          "system": "http://terminology.hl7.org/CodeSystem/observation-category",
          "code": "laboratory",
          "display": "Laboratory"
        }, {
          "system": "http://loinc.org",
          "code": "26436-6"
        } ]
      } ],
      "code": {
        "coding": [ {
          "system": "http://loinc.org",
          "code": "30351-1",
          "display": "hemoglobin-in-mixed-venous-blood"
        } ],
        "text": "hamoglobin"
      },
      "subject": {
        "reference": "Patient/23181a6500d3ae927d7f6402ee977a97f126663668c1ce2c835edce1c88e4dc1"
      },
      "encounter": {
        "reference": "Encounter/808013c55b88a41f81bf9970776b008457c14e95b06414e36187a2214f8028a8"
      },
      "effectiveDateTime": "2020-08-20T19:13:00+00:00",
      "valueQuantity": {
        "value": 47.802959166916295,
        "unit": "g/L",
        "system": "http://unitsofmeasure.org",
        "code": "g/L"
      }
    },
    "request": {
      "method": "POST",
      "url": "Observation",
      "ifNoneExist": "identifier=https://mein.krankenhaus.de/fhir/NamingSystem/observationId|604b91c0910fe51e566b2826dea2f5b410830768330b547ab57dbc18dd6c0fa0"
    }
  }, {
    "fullUrl": "Observation/42dad8373b739c3a806495e40b38991afdba2fefa8d9592a601d32ae40d9d0e6",
    "resource": {
      "resourceType": "Observation",
      "meta": {
        "profile": [ "https://www.medizininformatik-initiative.de/fhir/core/modul-labor/StructureDefinition/ObservationLab" ]
      },
      "identifier": [ {
        "type": {
          "coding": [ {
            "system": "http://terminology.hl7.org/CodeSystem/v2-0203",
            "code": "OBI",
            "display": "Observation Instance Identifier"
          } ]
        },
        "system": "https://mein.krankenhaus.de/fhir/NamingSystem/observationId",
        "value": "58c18ac7792c7e771965e166b750fd881d2ff08162cd0d628be85f435f5b4d91",
        "assigner": {
          "reference": "Organization/3a4f3433bce81181bad2d8e0b8fafccf7dc800bc06f29be73dcb38b750a48f9a"
        }
      } ],
      "status": "final",
      "category": [ {
        "coding": [ {
          "system": "http://terminology.hl7.org/CodeSystem/observation-category",
          "code": "laboratory",
          "display": "Laboratory"
        }, {
          "system": "http://loinc.org",
          "code": "26436-6"
        } ]
      } ],
      "code": {
        "coding": [ {
          "system": "http://loinc.org",
          "code": "59826-8",
          "display": "creatinine-in-blood"
        } ],
        "text": "kreatinin"
      },
      "subject": {
        "reference": "Patient/23181a6500d3ae927d7f6402ee977a97f126663668c1ce2c835edce1c88e4dc1"
      },
      "encounter": {
        "reference": "Encounter/808013c55b88a41f81bf9970776b008457c14e95b06414e36187a2214f8028a8"
      },
      "effectiveDateTime": "2020-08-20T19:13:00+00:00",
      "valueQuantity": {
        "value": 31.056162446872413,
        "unit": "umol/L",
        "system": "http://unitsofmeasure.org",
        "code": "umol/L"
      }
    },
    "request": {
      "method": "POST",
      "url": "Observation",
      "ifNoneExist": "identifier=https://mein.krankenhaus.de/fhir/NamingSystem/observationId|42dad8373b739c3a806495e40b38991afdba2fefa8d9592a601d32ae40d9d0e6"
    }
  }, {
    "fullUrl": "Observation/90628c0081883184d5c48ef15cbd0a3e34a16a75a0a0214b4f1df5e7df915e4f",
    "resource": {
      "resourceType": "Observation",
      "meta": {
        "profile": [ "https://www.medizininformatik-initiative.de/fhir/core/modul-labor/StructureDefinition/ObservationLab" ]
      },
      "identifier": [ {
        "type": {
          "coding": [ {
            "system": "http://terminology.hl7.org/CodeSystem/v2-0203",
            "code": "OBI",
            "display": "Observation Instance Identifier"
          } ]
        },
        "system": "https://mein.krankenhaus.de/fhir/NamingSystem/observationId",
        "value": "4ab73d18e231555c6f550adf1da9c06a2d0b5a2506da6b8437b7d90d7b00757b",
        "assigner": {
          "reference": "Organization/3a4f3433bce81181bad2d8e0b8fafccf7dc800bc06f29be73dcb38b750a48f9a"
        }
      } ],
      "status": "final",
      "category": [ {
        "coding": [ {
          "system": "http://terminology.hl7.org/CodeSystem/observation-category",
          "code": "laboratory",
          "display": "Laboratory"
        }, {
          "system": "http://loinc.org",
          "code": "26436-6"
        } ]
      } ],
      "code": {
        "coding": [ {
          "system": "http://loinc.org",
          "code": "26464-8",
          "display": "leukocytes-in-blood"
        } ],
        "text": "leukozyten_absolut"
      },
      "subject": {
        "reference": "Patient/23181a6500d3ae927d7f6402ee977a97f126663668c1ce2c835edce1c88e4dc1"
      },
      "encounter": {
        "reference": "Encounter/808013c55b88a41f81bf9970776b008457c14e95b06414e36187a2214f8028a8"
      },
      "effectiveDateTime": "2020-08-20T19:13:00+00:00",
      "valueQuantity": {
        "value": 44.91426420648643,
        "unit": "10*3/uL",
        "system": "http://unitsofmeasure.org",
        "code": "10*3/uL"
      }
    },
    "request": {
      "method": "POST",
      "url": "Observation",
      "ifNoneExist": "identifier=https://mein.krankenhaus.de/fhir/NamingSystem/observationId|90628c0081883184d5c48ef15cbd0a3e34a16a75a0a0214b4f1df5e7df915e4f"
    }
  }, {
    "fullUrl": "Observation/e270e220f23ffbd2c4e57f373d99f9af9174695a69b8630b34165977cf92d4dc",
    "resource": {
      "resourceType": "Observation",
      "meta": {
        "profile": [ "https://www.medizininformatik-initiative.de/fhir/core/modul-labor/StructureDefinition/ObservationLab" ]
      },
      "identifier": [ {
        "type": {
          "coding": [ {
            "system": "http://terminology.hl7.org/CodeSystem/v2-0203",
            "code": "OBI",
            "display": "Observation Instance Identifier"
          } ]
        },
        "system": "https://mein.krankenhaus.de/fhir/NamingSystem/observationId",
        "value": "c6f41d077dab0153aceaebac7076b3038abd168c91991378b3a0ed8927aead17",
        "assigner": {
          "reference": "Organization/3a4f3433bce81181bad2d8e0b8fafccf7dc800bc06f29be73dcb38b750a48f9a"
        }
      } ],
      "status": "final",
      "category": [ {
        "coding": [ {
          "system": "http://terminology.hl7.org/CodeSystem/observation-category",
          "code": "laboratory",
          "display": "Laboratory"
        }, {
          "system": "http://loinc.org",
          "code": "26436-6"
        } ]
      } ],
      "code": {
        "coding": [ {
          "system": "http://loinc.org",
          "code": "26474-7",
          "display": "lymphocytes-in-blood"
        } ],
        "text": "lymphozyten_absolut"
      },
      "subject": {
        "reference": "Patient/23181a6500d3ae927d7f6402ee977a97f126663668c1ce2c835edce1c88e4dc1"
      },
      "encounter": {
        "reference": "Encounter/808013c55b88a41f81bf9970776b008457c14e95b06414e36187a2214f8028a8"
      },
      "effectiveDateTime": "2020-08-20T19:13:00+00:00",
      "valueQuantity": {
        "value": 39.02580277150782,
        "unit": "10*3/uL",
        "system": "http://unitsofmeasure.org",
        "code": "10*3/uL"
      }
    },
    "request": {
      "method": "POST",
      "url": "Observation",
      "ifNoneExist": "identifier=https://mein.krankenhaus.de/fhir/NamingSystem/observationId|e270e220f23ffbd2c4e57f373d99f9af9174695a69b8630b34165977cf92d4dc"
    }
  }, {
    "fullUrl": "Observation/49d43365750e12b0f80b5c4dcdcbafd2fb066af491cf82ba8a28b870685936fc",
    "resource": {
      "resourceType": "Observation",
      "meta": {
        "profile": [ "https://www.medizininformatik-initiative.de/fhir/core/modul-labor/StructureDefinition/ObservationLab" ]
      },
      "identifier": [ {
        "type": {
          "coding": [ {
            "system": "http://terminology.hl7.org/CodeSystem/v2-0203",
            "code": "OBI",
            "display": "Observation Instance Identifier"
          } ]
        },
        "system": "https://mein.krankenhaus.de/fhir/NamingSystem/observationId",
        "value": "1cc54759cabaa23d5636dc56e6657df82f41ae5b22d70339cd8eb307c8a87c03",
        "assigner": {
          "reference": "Organization/3a4f3433bce81181bad2d8e0b8fafccf7dc800bc06f29be73dcb38b750a48f9a"
        }
      } ],
      "status": "final",
      "category": [ {
        "coding": [ {
          "system": "http://terminology.hl7.org/CodeSystem/observation-category",
          "code": "laboratory",
          "display": "Laboratory"
        }, {
          "system": "http://loinc.org",
          "code": "26436-6"
        } ]
      } ],
      "code": {
        "coding": [ {
          "system": "http://loinc.org",
          "code": "26499-4",
          "display": "neutrophils-in-blood"
        } ],
        "text": "neutrophile_absolut"
      },
      "subject": {
        "reference": "Patient/23181a6500d3ae927d7f6402ee977a97f126663668c1ce2c835edce1c88e4dc1"
      },
      "encounter": {
        "reference": "Encounter/808013c55b88a41f81bf9970776b008457c14e95b06414e36187a2214f8028a8"
      },
      "effectiveDateTime": "2020-08-20T19:13:00+00:00",
      "valueQuantity": {
        "value": 6.962512013715461,
        "unit": "10*3/uL",
        "system": "http://unitsofmeasure.org",
        "code": "10*3/uL"
      }
    },
    "request": {
      "method": "POST",
      "url": "Observation",
      "ifNoneExist": "identifier=https://mein.krankenhaus.de/fhir/NamingSystem/observationId|49d43365750e12b0f80b5c4dcdcbafd2fb066af491cf82ba8a28b870685936fc"
    }
  }, {
    "fullUrl": "Observation/91fb9f772c7f25d6e3ed13f1b9647300f68ecc0c0f4c50a62ddb219db9c90c27",
    "resource": {
      "resourceType": "Observation",
      "meta": {
        "profile": [ "https://www.medizininformatik-initiative.de/fhir/core/modul-labor/StructureDefinition/ObservationLab" ]
      },
      "identifier": [ {
        "type": {
          "coding": [ {
            "system": "http://terminology.hl7.org/CodeSystem/v2-0203",
            "code": "OBI",
            "display": "Observation Instance Identifier"
          } ]
        },
        "system": "https://mein.krankenhaus.de/fhir/NamingSystem/observationId",
        "value": "be0d2219aa7b5da4571cbe346fbb943b7b9c9d99cb6cb57356e1d7491b59a724",
        "assigner": {
          "reference": "Organization/3a4f3433bce81181bad2d8e0b8fafccf7dc800bc06f29be73dcb38b750a48f9a"
        }
      } ],
      "status": "final",
      "category": [ {
        "coding": [ {
          "system": "http://terminology.hl7.org/CodeSystem/observation-category",
          "code": "laboratory",
          "display": "Laboratory"
        }, {
          "system": "http://loinc.org",
          "code": "26436-6"
        } ]
      } ],
      "code": {
        "coding": [ {
          "system": "http://loinc.org",
          "code": "14979-9",
          "display": "aptt-in-platelet-poor-plasma-by-coagulation-assay"
        } ],
        "text": "ptt"
      },
      "subject": {
        "reference": "Patient/23181a6500d3ae927d7f6402ee977a97f126663668c1ce2c835edce1c88e4dc1"
      },
      "encounter": {
        "reference": "Encounter/808013c55b88a41f81bf9970776b008457c14e95b06414e36187a2214f8028a8"
      },
      "effectiveDateTime": "2020-08-20T19:13:00+00:00",
      "valueQuantity": {
        "value": 3.135955274691471,
        "unit": "s",
        "system": "http://unitsofmeasure.org",
        "code": "s"
      }
    },
    "request": {
      "method": "POST",
      "url": "Observation",
      "ifNoneExist": "identifier=https://mein.krankenhaus.de/fhir/NamingSystem/observationId|91fb9f772c7f25d6e3ed13f1b9647300f68ecc0c0f4c50a62ddb219db9c90c27"
    }
  }, {
    "fullUrl": "Observation/a7434b9a073ceb6863405d0e7898541707604fa4b861d35173ceaeddaee115b7",
    "resource": {
      "resourceType": "Observation",
      "meta": {
        "profile": [ "https://www.medizininformatik-initiative.de/fhir/core/modul-labor/StructureDefinition/ObservationLab" ]
      },
      "identifier": [ {
        "type": {
          "coding": [ {
            "system": "http://terminology.hl7.org/CodeSystem/v2-0203",
            "code": "OBI",
            "display": "Observation Instance Identifier"
          } ]
        },
        "system": "https://mein.krankenhaus.de/fhir/NamingSystem/observationId",
        "value": "291e2c6066ebac6d50592df6241e291569b046428329e77a343ca1248552f375",
        "assigner": {
          "reference": "Organization/3a4f3433bce81181bad2d8e0b8fafccf7dc800bc06f29be73dcb38b750a48f9a"
        }
      } ],
      "status": "final",
      "category": [ {
        "coding": [ {
          "system": "http://terminology.hl7.org/CodeSystem/observation-category",
          "code": "laboratory",
          "display": "Laboratory"
        }, {
          "system": "http://loinc.org",
          "code": "26436-6"
        } ]
      } ],
      "code": {
        "coding": [ {
          "system": "http://loinc.org",
          "code": "74464-9",
          "display": "platelets-in-capillary-blood-by-manual-count"
        } ],
        "text": "thrombozyten_absolut"
      },
      "subject": {
        "reference": "Patient/23181a6500d3ae927d7f6402ee977a97f126663668c1ce2c835edce1c88e4dc1"
      },
      "encounter": {
        "reference": "Encounter/808013c55b88a41f81bf9970776b008457c14e95b06414e36187a2214f8028a8"
      },
      "effectiveDateTime": "2020-08-20T19:13:00+00:00",
      "valueQuantity": {
        "value": 74.43144133724684,
        "unit": "10*3/uL",
        "system": "http://unitsofmeasure.org",
        "code": "10*3/uL"
      }
    },
    "request": {
      "method": "POST",
      "url": "Observation",
      "ifNoneExist": "identifier=https://mein.krankenhaus.de/fhir/NamingSystem/observationId|a7434b9a073ceb6863405d0e7898541707604fa4b861d35173ceaeddaee115b7"
    }
  }, {
    "fullUrl": "Observation/5f929d6893539324ad8be2e276c6ba3a0348633459b5a6eff2f50c6e1b4db32e",
    "resource": {
      "resourceType": "Observation",
      "meta": {
        "profile": [ "https://www.medizininformatik-initiative.de/fhir/core/modul-labor/StructureDefinition/ObservationLab" ]
      },
      "identifier": [ {
        "type": {
          "coding": [ {
            "system": "http://terminology.hl7.org/CodeSystem/v2-0203",
            "code": "OBI",
            "display": "Observation Instance Identifier"
          } ]
        },
        "system": "https://mein.krankenhaus.de/fhir/NamingSystem/observationId",
        "value": "48c66897aecf32eb11c59dfb3d70465b1192f344953b00bc0fef781ed2330ed7",
        "assigner": {
          "reference": "Organization/3a4f3433bce81181bad2d8e0b8fafccf7dc800bc06f29be73dcb38b750a48f9a"
        }
      } ],
      "status": "final",
      "category": [ {
        "coding": [ {
          "system": "http://terminology.hl7.org/CodeSystem/observation-category",
          "code": "laboratory",
          "display": "Laboratory"
        }, {
          "system": "http://loinc.org",
          "code": "26436-6"
        } ]
      } ],
      "code": {
        "coding": [ {
          "system": "http://loinc.org",
          "code": "46418-0",
          "display": "inr-in-capillary-blood-by-coagulation-assay"
        } ],
        "text": "inr"
      },
      "subject": {
        "reference": "Patient/23181a6500d3ae927d7f6402ee977a97f126663668c1ce2c835edce1c88e4dc1"
      },
      "encounter": {
        "reference": "Encounter/808013c55b88a41f81bf9970776b008457c14e95b06414e36187a2214f8028a8"
      },
      "effectiveDateTime": "2020-08-20T19:13:00+00:00",
      "valueQuantity": {
        "value": 92.20104337963782,
        "unit": "{INR}",
        "system": "http://unitsofmeasure.org",
        "code": "{INR}"
      }
    },
    "request": {
      "method": "POST",
      "url": "Observation",
      "ifNoneExist": "identifier=https://mein.krankenhaus.de/fhir/NamingSystem/observationId|5f929d6893539324ad8be2e276c6ba3a0348633459b5a6eff2f50c6e1b4db32e"
    }
  }, {
    "fullUrl": "Observation/70aad0a283c162798ba66b183900bf96431a5e1583c3a8ca11c80354a31ec36f",
    "resource": {
      "resourceType": "Observation",
      "meta": {
        "profile": [ "https://www.medizininformatik-initiative.de/fhir/core/modul-labor/StructureDefinition/ObservationLab" ]
      },
      "identifier": [ {
        "type": {
          "coding": [ {
            "system": "http://terminology.hl7.org/CodeSystem/v2-0203",
            "code": "OBI",
            "display": "Observation Instance Identifier"
          } ]
        },
        "system": "https://mein.krankenhaus.de/fhir/NamingSystem/observationId",
        "value": "da7e5e678e7f1cee75acfce504dbe6e3b8b49f109c2ff8a821d94e49a8eae6b3",
        "assigner": {
          "reference": "Organization/3a4f3433bce81181bad2d8e0b8fafccf7dc800bc06f29be73dcb38b750a48f9a"
        }
      } ],
      "status": "final",
      "category": [ {
        "coding": [ {
          "system": "http://terminology.hl7.org/CodeSystem/observation-category",
          "code": "laboratory",
          "display": "Laboratory"
        }, {
          "system": "http://loinc.org",
          "code": "26436-6"
        } ]
      } ],
      "code": {
        "coding": [ {
          "system": "http://loinc.org",
          "code": "62235-7",
          "display": "albumin-in-serum-or-plasma-by-bromocresol-green-bcg-dye-binding-method"
        } ],
        "text": "serumalbumin"
      },
      "subject": {
        "reference": "Patient/23181a6500d3ae927d7f6402ee977a97f126663668c1ce2c835edce1c88e4dc1"
      },
      "encounter": {
        "reference": "Encounter/808013c55b88a41f81bf9970776b008457c14e95b06414e36187a2214f8028a8"
      },
      "effectiveDateTime": "2020-08-20T19:13:00+00:00",
      "valueQuantity": {
        "value": 61.897701310704534,
        "unit": "umol/L",
        "system": "http://unitsofmeasure.org",
        "code": "umol/L"
      }
    },
    "request": {
      "method": "POST",
      "url": "Observation",
      "ifNoneExist": "identifier=https://mein.krankenhaus.de/fhir/NamingSystem/observationId|70aad0a283c162798ba66b183900bf96431a5e1583c3a8ca11c80354a31ec36f"
    }
  }, {
    "fullUrl": "Observation/f5c2ad211bc65727691248ed76b53f4ea1b6f387f190046e67559df8559534b0",
    "resource": {
      "resourceType": "Observation",
      "meta": {
        "profile": [ "https://www.medizininformatik-initiative.de/fhir/core/modul-labor/StructureDefinition/ObservationLab" ]
      },
      "identifier": [ {
        "type": {
          "coding": [ {
            "system": "http://terminology.hl7.org/CodeSystem/v2-0203",
            "code": "OBI",
            "display": "Observation Instance Identifier"
          } ]
        },
        "system": "https://mein.krankenhaus.de/fhir/NamingSystem/observationId",
        "value": "a7a37aace7677d50d51675bfa4850256df6f9c3822905a038051d4cd7416e479",
        "assigner": {
          "reference": "Organization/3a4f3433bce81181bad2d8e0b8fafccf7dc800bc06f29be73dcb38b750a48f9a"
        }
      } ],
      "status": "final",
      "category": [ {
        "coding": [ {
          "system": "http://terminology.hl7.org/CodeSystem/observation-category",
          "code": "laboratory",
          "display": "Laboratory"
        }, {
          "system": "http://loinc.org",
          "code": "26436-6"
        } ]
      } ],
      "code": {
        "coding": [ {
          "system": "http://loinc.org",
          "code": "3174-0",
          "display": "antithrombin-in-platelet-poor-plasma-by-chromogenic-method"
        } ],
        "text": "antithrombin_iii"
      },
      "subject": {
        "reference": "Patient/23181a6500d3ae927d7f6402ee977a97f126663668c1ce2c835edce1c88e4dc1"
      },
      "encounter": {
        "reference": "Encounter/808013c55b88a41f81bf9970776b008457c14e95b06414e36187a2214f8028a8"
      },
      "effectiveDateTime": "2020-08-20T19:13:00+00:00",
      "valueQuantity": {
        "value": 2.9762399863650146,
        "unit": "[IU]/mL",
        "system": "http://unitsofmeasure.org",
        "code": "[IU]/mL"
      }
    },
    "request": {
      "method": "POST",
      "url": "Observation",
      "ifNoneExist": "identifier=https://mein.krankenhaus.de/fhir/NamingSystem/observationId|f5c2ad211bc65727691248ed76b53f4ea1b6f387f190046e67559df8559534b0"
    }
  }, {
    "fullUrl": "Observation/318462c4bc1877b86bafaaafb7557338ebd75cccb3a7551b15d7ac4caac358c3",
    "resource": {
      "resourceType": "Observation",
      "meta": {
        "profile": [ "https://www.medizininformatik-initiative.de/fhir/core/modul-labor/StructureDefinition/ObservationLab" ]
      },
      "identifier": [ {
        "type": {
          "coding": [ {
            "system": "http://terminology.hl7.org/CodeSystem/v2-0203",
            "code": "OBI",
            "display": "Observation Instance Identifier"
          } ]
        },
        "system": "https://mein.krankenhaus.de/fhir/NamingSystem/observationId",
        "value": "2d93cc04beda6d9f5f2ddb3ee3cb8ffc5622aa35ebad1867409df506acbc230c",
        "assigner": {
          "reference": "Organization/3a4f3433bce81181bad2d8e0b8fafccf7dc800bc06f29be73dcb38b750a48f9a"
        }
      } ],
      "status": "final",
      "category": [ {
        "coding": [ {
          "system": "http://terminology.hl7.org/CodeSystem/observation-category",
          "code": "laboratory",
          "display": "Laboratory"
        }, {
          "system": "http://loinc.org",
          "code": "26436-6"
        } ]
      } ],
      "code": {
        "coding": [ {
          "system": "http://loinc.org",
          "code": "33959-8",
          "display": "procalcitonin-in-serum-or-plasma"
        } ],
        "text": "pct_procalcitonin"
      },
      "subject": {
        "reference": "Patient/23181a6500d3ae927d7f6402ee977a97f126663668c1ce2c835edce1c88e4dc1"
      },
      "encounter": {
        "reference": "Encounter/808013c55b88a41f81bf9970776b008457c14e95b06414e36187a2214f8028a8"
      },
      "effectiveDateTime": "2020-08-20T19:13:00+00:00",
      "valueQuantity": {
        "value": 97.9722563197314,
        "unit": "ng/mL",
        "system": "http://unitsofmeasure.org",
        "code": "ng/mL"
      }
    },
    "request": {
      "method": "POST",
      "url": "Observation",
      "ifNoneExist": "identifier=https://mein.krankenhaus.de/fhir/NamingSystem/observationId|318462c4bc1877b86bafaaafb7557338ebd75cccb3a7551b15d7ac4caac358c3"
    }
  }, {
    "fullUrl": "Observation/5866826c7bf0bfe39c8670302ec70dfdc86885474a029cd4278f4d39563f156d",
    "resource": {
      "resourceType": "Observation",
      "meta": {
        "profile": [ "https://www.medizininformatik-initiative.de/fhir/core/modul-labor/StructureDefinition/ObservationLab" ]
      },
      "identifier": [ {
        "type": {
          "coding": [ {
            "system": "http://terminology.hl7.org/CodeSystem/v2-0203",
            "code": "OBI",
            "display": "Observation Instance Identifier"
          } ]
        },
        "system": "https://mein.krankenhaus.de/fhir/NamingSystem/observationId",
        "value": "b7a0553675ed5371c8c37a399fe9fb847c22de0f329fcd482b0d8667edb38ae6",
        "assigner": {
          "reference": "Organization/3a4f3433bce81181bad2d8e0b8fafccf7dc800bc06f29be73dcb38b750a48f9a"
        }
      } ],
      "status": "final",
      "category": [ {
        "coding": [ {
          "system": "http://terminology.hl7.org/CodeSystem/observation-category",
          "code": "laboratory",
          "display": "Laboratory"
        }, {
          "system": "http://loinc.org",
          "code": "26436-6"
        } ]
      } ],
      "code": {
        "coding": [ {
          "system": "http://loinc.org",
          "code": "44322-6",
          "display": "interleukin-6-in-serum-or-plasma"
        } ],
        "text": "il6_interleukin_6"
      },
      "subject": {
        "reference": "Patient/23181a6500d3ae927d7f6402ee977a97f126663668c1ce2c835edce1c88e4dc1"
      },
      "encounter": {
        "reference": "Encounter/808013c55b88a41f81bf9970776b008457c14e95b06414e36187a2214f8028a8"
      },
      "effectiveDateTime": "2020-08-20T19:13:00+00:00",
      "valueQuantity": {
        "value": 62.57260511656225,
        "unit": "pg/mL",
        "system": "http://unitsofmeasure.org",
        "code": "pg/mL"
      }
    },
    "request": {
      "method": "POST",
      "url": "Observation",
      "ifNoneExist": "identifier=https://mein.krankenhaus.de/fhir/NamingSystem/observationId|5866826c7bf0bfe39c8670302ec70dfdc86885474a029cd4278f4d39563f156d"
    }
  }, {
    "fullUrl": "Observation/471b66c5a8c536045ec1eaa78498dbe55007a8f6440add347da08d93047c0608",
    "resource": {
      "resourceType": "Observation",
      "meta": {
        "profile": [ "https://www.medizininformatik-initiative.de/fhir/core/modul-labor/StructureDefinition/ObservationLab" ]
      },
      "identifier": [ {
        "type": {
          "coding": [ {
            "system": "http://terminology.hl7.org/CodeSystem/v2-0203",
            "code": "OBI",
            "display": "Observation Instance Identifier"
          } ]
        },
        "system": "https://mein.krankenhaus.de/fhir/NamingSystem/observationId",
        "value": "4cdf9ec3dd8b4a5037c2c1d1c8f43c417259de5e022fda9c7167d65d2782ca7a",
        "assigner": {
          "reference": "Organization/3a4f3433bce81181bad2d8e0b8fafccf7dc800bc06f29be73dcb38b750a48f9a"
        }
      } ],
      "status": "final",
      "category": [ {
        "coding": [ {
          "system": "http://terminology.hl7.org/CodeSystem/observation-category",
          "code": "laboratory",
          "display": "Laboratory"
        }, {
          "system": "http://loinc.org",
          "code": "26436-6"
        } ]
      } ],
      "code": {
        "coding": [ {
          "system": "http://loinc.org",
          "code": "83107-3",
          "display": "natriuretic-peptide.b-prohormone-n-terminal-in-serum-or-plasma-by-immunoassay"
        } ],
        "text": "ntprobnp"
      },
      "subject": {
        "reference": "Patient/23181a6500d3ae927d7f6402ee977a97f126663668c1ce2c835edce1c88e4dc1"
      },
      "encounter": {
        "reference": "Encounter/808013c55b88a41f81bf9970776b008457c14e95b06414e36187a2214f8028a8"
      },
      "effectiveDateTime": "2020-08-20T19:13:00+00:00",
      "valueQuantity": {
        "value": 49.60716835303125,
        "unit": "pg/mL",
        "system": "http://unitsofmeasure.org",
        "code": "pg/mL"
      }
    },
    "request": {
      "method": "POST",
      "url": "Observation",
      "ifNoneExist": "identifier=https://mein.krankenhaus.de/fhir/NamingSystem/observationId|471b66c5a8c536045ec1eaa78498dbe55007a8f6440add347da08d93047c0608"
    }
  }, {
    "fullUrl": "Observation/f7ee2ec45034063f4208326c511294582bd8eaed61c15d051d1cc082b956e932",
    "resource": {
      "resourceType": "Observation",
      "meta": {
        "profile": [ "https://www.medizininformatik-initiative.de/fhir/core/modul-labor/StructureDefinition/ObservationLab" ]
      },
      "identifier": [ {
        "type": {
          "coding": [ {
            "system": "http://terminology.hl7.org/CodeSystem/v2-0203",
            "code": "OBI",
            "display": "Observation Instance Identifier"
          } ]
        },
        "system": "https://mein.krankenhaus.de/fhir/NamingSystem/observationId",
        "value": "e9a51ccac7570948480fc705864aba492ccdb578dd0288830f99a821b7fc9f23",
        "assigner": {
          "reference": "Organization/3a4f3433bce81181bad2d8e0b8fafccf7dc800bc06f29be73dcb38b750a48f9a"
        }
      } ],
      "status": "final",
      "category": [ {
        "coding": [ {
          "system": "http://terminology.hl7.org/CodeSystem/observation-category",
          "code": "laboratory",
          "display": "Laboratory"
        }, {
          "system": "http://loinc.org",
          "code": "26436-6"
        } ]
      } ],
      "code": {
        "coding": [ {
          "system": "http://loinc.org",
          "code": "48664-7",
          "display": "fibrinogen-in-platelet-poor-plasma-by-coagulation.derived"
        } ],
        "text": "fibrinogen"
      },
      "subject": {
        "reference": "Patient/23181a6500d3ae927d7f6402ee977a97f126663668c1ce2c835edce1c88e4dc1"
      },
      "encounter": {
        "reference": "Encounter/808013c55b88a41f81bf9970776b008457c14e95b06414e36187a2214f8028a8"
      },
      "effectiveDateTime": "2020-08-20T19:13:00+00:00",
      "valueQuantity": {
        "value": 18.058648464605078,
        "unit": "mg/dL",
        "system": "http://unitsofmeasure.org",
        "code": "mg/dL"
      }
    },
    "request": {
      "method": "POST",
      "url": "Observation",
      "ifNoneExist": "identifier=https://mein.krankenhaus.de/fhir/NamingSystem/observationId|f7ee2ec45034063f4208326c511294582bd8eaed61c15d051d1cc082b956e932"
    }
  }, {
    "fullUrl": "Observation/1c0b94c8bdc86d3a42d56647e3862dda21f43da7e947af255240dff78a9287ba",
    "resource": {
      "resourceType": "Observation",
      "meta": {
        "profile": [ "https://www.netzwerk-universitaetsmedizin.de/fhir/StructureDefinition/sars-cov-2-rt-pcr" ]
      },
      "identifier": [ {
        "type": {
          "coding": [ {
            "system": "http://terminology.hl7.org/CodeSystem/v2-0203",
            "code": "OBI",
            "display": "Observation Instance Identifier"
          } ]
        },
        "system": "https://mein.krankenhaus.de/fhir/NamingSystem/observationId",
        "value": "ee20cfe80ca4c1b265c2703dfdd4f814c2e653e4cbf51c22e3e8a9b49bd3d91f",
        "assigner": {
          "reference": "Organization/3a4f3433bce81181bad2d8e0b8fafccf7dc800bc06f29be73dcb38b750a48f9a"
        }
      } ],
      "status": "final",
      "category": [ {
        "coding": [ {
          "system": "http://terminology.hl7.org/CodeSystem/observation-category",
          "code": "laboratory",
          "display": "Laboratory"
        }, {
          "system": "http://loinc.org",
          "code": "26436-6"
        } ]
      } ],
      "code": {
        "coding": [ {
          "system": "http://loinc.org",
          "code": "94500-6",
          "display": "sars-cov-2-covid-19-rna-in-respiratory-specimen-by-naa-with-probe-detection"
        } ],
        "text": "SARS-CoV-2-RNA (PCR)"
      },
      "subject": {
        "reference": "Patient/23181a6500d3ae927d7f6402ee977a97f126663668c1ce2c835edce1c88e4dc1"
      },
      "encounter": {
        "reference": "Encounter/808013c55b88a41f81bf9970776b008457c14e95b06414e36187a2214f8028a8"
      },
      "effectiveDateTime": "2020-08-20T19:13:00+00:00",
      "valueCodeableConcept": {
        "coding": [ {
          "system": "http://snomed.info/sct",
          "code": "260415000",
          "display": "Not detected (qualifier value)"
        } ],
        "text": "SARS-CoV-2-RNA negativ"
      }
    },
    "request": {
      "method": "POST",
      "url": "Observation",
      "ifNoneExist": "identifier=https://mein.krankenhaus.de/fhir/NamingSystem/observationId|1c0b94c8bdc86d3a42d56647e3862dda21f43da7e947af255240dff78a9287ba"
    }
  }, {
    "fullUrl": "Observation/f7ec04c81f5e9e91652f33cfee6a23122fcea7f664eb4ccc107a11893b3fc13d",
    "resource": {
      "resourceType": "Observation",
      "meta": {
        "profile": [ "https://www.netzwerk-universitaetsmedizin.de/fhir/StructureDefinition/sars-cov-2-ab-pnl-ser-pl-ia" ]
      },
      "identifier": [ {
        "type": {
          "coding": [ {
            "system": "http://terminology.hl7.org/CodeSystem/v2-0203",
            "code": "OBI",
            "display": "Observation Instance Identifier"
          } ]
        },
        "system": "https://mein.krankenhaus.de/fhir/NamingSystem/observationId",
        "value": "642d0bf63ae7d4e52277a6b26a34ce71a989344f5ae8ce48aae2a9ca21e9b435",
        "assigner": {
          "reference": "Organization/3a4f3433bce81181bad2d8e0b8fafccf7dc800bc06f29be73dcb38b750a48f9a"
        }
      } ],
      "status": "final",
      "category": [ {
        "coding": [ {
          "system": "http://terminology.hl7.org/CodeSystem/observation-category",
          "code": "laboratory",
          "display": "Laboratory"
        }, {
          "system": "http://loinc.org",
          "code": "26436-6"
        } ]
      } ],
      "code": {
        "coding": [ {
          "system": "http://loinc.org",
          "code": "94504-8"
        } ],
        "text": "sarsco_v2_covid19_ab_pnl"
      },
      "subject": {
        "reference": "Patient/23181a6500d3ae927d7f6402ee977a97f126663668c1ce2c835edce1c88e4dc1"
      },
      "encounter": {
        "reference": "Encounter/808013c55b88a41f81bf9970776b008457c14e95b06414e36187a2214f8028a8"
      },
      "effectiveDateTime": "2020-08-20T19:13:00+00:00",
      "hasMember": [ {
        "reference": "Observation/426f37bec084be9a54975b9f39862c41ed765832665a0d537e61b5b8151ff771"
      }, {
        "reference": "Observation/5a6fd307dfc8636928d3cf4530aa2b55374d8e53e2b44e3927f0a306e93a108d"
      }, {
        "reference": "Observation/e6ae25d398c4f48339cb167a5f25c210a27e7b628015bdfda07e18d50efb2b25"
      }, {
        "reference": "Observation/5794217772e5e2a5bfa29bf2797f9a14ce770757b8e51fda527b0a58215c6070"
      }, {
        "reference": "Observation/1c69e9da04891de683238a106868ef08b979d9fb5eb32ee5c306214404227a1b"
      }, {
        "reference": "Observation/bac632b98d41872e242ae818ab9a73c4dd2d1c2b764356b9a1c7c08477b6e287"
      }, {
        "reference": "Observation/f27ac4dce39fa62f8f07b71fce5c284f5102d09cb5e7493413959a676bb1d3ed"
      } ]
    },
    "request": {
      "method": "POST",
      "url": "Observation",
      "ifNoneExist": "identifier=https://mein.krankenhaus.de/fhir/NamingSystem/observationId|f7ec04c81f5e9e91652f33cfee6a23122fcea7f664eb4ccc107a11893b3fc13d"
    }
  }, {
    "fullUrl": "Observation/426f37bec084be9a54975b9f39862c41ed765832665a0d537e61b5b8151ff771",
    "resource": {
      "resourceType": "Observation",
      "meta": {
        "profile": [ "https://www.netzwerk-universitaetsmedizin.de/fhir/StructureDefinition/sars-cov-2-ab-ser-pl-ql-ia" ]
      },
      "identifier": [ {
        "type": {
          "coding": [ {
            "system": "http://terminology.hl7.org/CodeSystem/v2-0203",
            "code": "OBI",
            "display": "Observation Instance Identifier"
          } ]
        },
        "system": "https://mein.krankenhaus.de/fhir/NamingSystem/observationId",
        "value": "8da9e6f45fd13b8a575e811a9a0f01046db2bf00945d958ac1d901a0319447b0",
        "assigner": {
          "reference": "Organization/3a4f3433bce81181bad2d8e0b8fafccf7dc800bc06f29be73dcb38b750a48f9a"
        }
      } ],
      "status": "final",
      "category": [ {
        "coding": [ {
          "system": "http://terminology.hl7.org/CodeSystem/observation-category",
          "code": "laboratory",
          "display": "Laboratory"
        }, {
          "system": "http://loinc.org",
          "code": "26436-6"
        } ]
      } ],
      "code": {
        "coding": [ {
          "system": "http://loinc.org",
          "code": "94762-2",
          "display": "sars-cov-2-covid-19-ab-in-serum-or-plasma-by-immunoassay"
        } ],
        "text": "sarsco_v2_covid19_ab_ia_ql"
      },
      "subject": {
        "reference": "Patient/23181a6500d3ae927d7f6402ee977a97f126663668c1ce2c835edce1c88e4dc1"
      },
      "encounter": {
        "reference": "Encounter/808013c55b88a41f81bf9970776b008457c14e95b06414e36187a2214f8028a8"
      },
      "effectiveDateTime": "2020-08-20T19:13:00+00:00",
      "valueCodeableConcept": {
        "coding": [ {
          "system": "http://snomed.info/sct",
          "code": "260373001"
        } ]
      }
    },
    "request": {
      "method": "POST",
      "url": "Observation",
      "ifNoneExist": "identifier=https://mein.krankenhaus.de/fhir/NamingSystem/observationId|426f37bec084be9a54975b9f39862c41ed765832665a0d537e61b5b8151ff771"
    }
  }, {
    "fullUrl": "Observation/5a6fd307dfc8636928d3cf4530aa2b55374d8e53e2b44e3927f0a306e93a108d",
    "resource": {
      "resourceType": "Observation",
      "meta": {
        "profile": [ "https://www.netzwerk-universitaetsmedizin.de/fhir/StructureDefinition/sars-cov-2-ab-ser-pl-ia-acnc" ]
      },
      "identifier": [ {
        "type": {
          "coding": [ {
            "system": "http://terminology.hl7.org/CodeSystem/v2-0203",
            "code": "OBI",
            "display": "Observation Instance Identifier"
          } ]
        },
        "system": "https://mein.krankenhaus.de/fhir/NamingSystem/observationId",
        "value": "5ac0d281207695fc7ffd66d99f71f383ad135372bb585a7f6c6c668f7ac5389b",
        "assigner": {
          "reference": "Organization/3a4f3433bce81181bad2d8e0b8fafccf7dc800bc06f29be73dcb38b750a48f9a"
        }
      } ],
      "status": "final",
      "category": [ {
        "coding": [ {
          "system": "http://terminology.hl7.org/CodeSystem/observation-category",
          "code": "laboratory",
          "display": "Laboratory"
        }, {
          "system": "http://loinc.org",
          "code": "26436-6"
        } ]
      } ],
      "code": {
        "coding": [ {
          "system": "http://loinc.org",
          "code": "94769-7",
          "display": "sars-cov-2-covid-19-ab-in-serum-or-plasma-by-immunoassay"
        } ],
        "text": "sarsco_v2_covid19_ab_ia_qn"
      },
      "subject": {
        "reference": "Patient/23181a6500d3ae927d7f6402ee977a97f126663668c1ce2c835edce1c88e4dc1"
      },
      "encounter": {
        "reference": "Encounter/808013c55b88a41f81bf9970776b008457c14e95b06414e36187a2214f8028a8"
      },
      "effectiveDateTime": "2020-08-20T19:13:00+00:00",
      "valueQuantity": {
        "value": 73.77837259087028,
        "unit": "[IU]/mL",
        "system": "http://unitsofmeasure.org",
        "code": "[IU]/mL"
      }
    },
    "request": {
      "method": "POST",
      "url": "Observation",
      "ifNoneExist": "identifier=https://mein.krankenhaus.de/fhir/NamingSystem/observationId|5a6fd307dfc8636928d3cf4530aa2b55374d8e53e2b44e3927f0a306e93a108d"
    }
  }, {
    "fullUrl": "Observation/e6ae25d398c4f48339cb167a5f25c210a27e7b628015bdfda07e18d50efb2b25",
    "resource": {
      "resourceType": "Observation",
      "meta": {
        "profile": [ "https://www.netzwerk-universitaetsmedizin.de/fhir/StructureDefinition/sars-cov-2-iga-ser-pl-ql-ia" ]
      },
      "identifier": [ {
        "type": {
          "coding": [ {
            "system": "http://terminology.hl7.org/CodeSystem/v2-0203",
            "code": "OBI",
            "display": "Observation Instance Identifier"
          } ]
        },
        "system": "https://mein.krankenhaus.de/fhir/NamingSystem/observationId",
        "value": "b3927eab67e359f3500e831875a456b4c0e110847a52a528916836f2ba76929e",
        "assigner": {
          "reference": "Organization/3a4f3433bce81181bad2d8e0b8fafccf7dc800bc06f29be73dcb38b750a48f9a"
        }
      } ],
      "status": "final",
      "category": [ {
        "coding": [ {
          "system": "http://terminology.hl7.org/CodeSystem/observation-category",
          "code": "laboratory",
          "display": "Laboratory"
        }, {
          "system": "http://loinc.org",
          "code": "26436-6"
        } ]
      } ],
      "code": {
        "coding": [ {
          "system": "http://loinc.org",
          "code": "94562-6",
          "display": "sars-cov-2-covid-19-iga-ab-in-serum-or-plasma-by-immunoassay"
        } ],
        "text": "sarsco_v2_covid19_ig_a_ia_ql"
      },
      "subject": {
        "reference": "Patient/23181a6500d3ae927d7f6402ee977a97f126663668c1ce2c835edce1c88e4dc1"
      },
      "encounter": {
        "reference": "Encounter/808013c55b88a41f81bf9970776b008457c14e95b06414e36187a2214f8028a8"
      },
      "effectiveDateTime": "2020-08-20T19:13:00+00:00",
      "valueCodeableConcept": {
        "coding": [ {
          "system": "http://snomed.info/sct",
          "code": "260373001"
        } ]
      }
    },
    "request": {
      "method": "POST",
      "url": "Observation",
      "ifNoneExist": "identifier=https://mein.krankenhaus.de/fhir/NamingSystem/observationId|e6ae25d398c4f48339cb167a5f25c210a27e7b628015bdfda07e18d50efb2b25"
    }
  }, {
    "fullUrl": "Observation/5794217772e5e2a5bfa29bf2797f9a14ce770757b8e51fda527b0a58215c6070",
    "resource": {
      "resourceType": "Observation",
      "meta": {
        "profile": [ "https://www.netzwerk-universitaetsmedizin.de/fhir/StructureDefinition/sars-cov-2-iga-ser-pl-ia-acnc" ]
      },
      "identifier": [ {
        "type": {
          "coding": [ {
            "system": "http://terminology.hl7.org/CodeSystem/v2-0203",
            "code": "OBI",
            "display": "Observation Instance Identifier"
          } ]
        },
        "system": "https://mein.krankenhaus.de/fhir/NamingSystem/observationId",
        "value": "cd4824693b915b52c715829f3fda298f5dd00fd1b6a5ab9ea4b4c708cc5d125b",
        "assigner": {
          "reference": "Organization/3a4f3433bce81181bad2d8e0b8fafccf7dc800bc06f29be73dcb38b750a48f9a"
        }
      } ],
      "status": "final",
      "category": [ {
        "coding": [ {
          "system": "http://terminology.hl7.org/CodeSystem/observation-category",
          "code": "laboratory",
          "display": "Laboratory"
        }, {
          "system": "http://loinc.org",
          "code": "26436-6"
        } ]
      } ],
      "code": {
        "coding": [ {
          "system": "http://loinc.org",
          "code": "94720-0",
          "display": "sars-cov-2-covid-19-iga-ab-in-serum-or-plasma-by-immunoassay"
        } ],
        "text": "sarsco_v2_covid19_ig_a_ia_qn"
      },
      "subject": {
        "reference": "Patient/23181a6500d3ae927d7f6402ee977a97f126663668c1ce2c835edce1c88e4dc1"
      },
      "encounter": {
        "reference": "Encounter/808013c55b88a41f81bf9970776b008457c14e95b06414e36187a2214f8028a8"
      },
      "effectiveDateTime": "2020-08-20T19:13:00+00:00",
      "valueQuantity": {
        "value": 63.070774967143265,
        "unit": "[IU]/mL",
        "system": "http://unitsofmeasure.org",
        "code": "[IU]/mL"
      }
    },
    "request": {
      "method": "POST",
      "url": "Observation",
      "ifNoneExist": "identifier=https://mein.krankenhaus.de/fhir/NamingSystem/observationId|5794217772e5e2a5bfa29bf2797f9a14ce770757b8e51fda527b0a58215c6070"
    }
  }, {
    "fullUrl": "Observation/1c69e9da04891de683238a106868ef08b979d9fb5eb32ee5c306214404227a1b",
    "resource": {
      "resourceType": "Observation",
      "meta": {
        "profile": [ "https://www.netzwerk-universitaetsmedizin.de/fhir/StructureDefinition/sars-cov-2-igg-ser-pl-ql-ia" ]
      },
      "identifier": [ {
        "type": {
          "coding": [ {
            "system": "http://terminology.hl7.org/CodeSystem/v2-0203",
            "code": "OBI",
            "display": "Observation Instance Identifier"
          } ]
        },
        "system": "https://mein.krankenhaus.de/fhir/NamingSystem/observationId",
        "value": "1eb1159fde99dd67b156872a64ddb35a74476f32253c4b131c3f30bc46137e13",
        "assigner": {
          "reference": "Organization/3a4f3433bce81181bad2d8e0b8fafccf7dc800bc06f29be73dcb38b750a48f9a"
        }
      } ],
      "status": "final",
      "category": [ {
        "coding": [ {
          "system": "http://terminology.hl7.org/CodeSystem/observation-category",
          "code": "laboratory",
          "display": "Laboratory"
        }, {
          "system": "http://loinc.org",
          "code": "26436-6"
        } ]
      } ],
      "code": {
        "coding": [ {
          "system": "http://loinc.org",
          "code": "94563-4",
          "display": "sars-cov-2-covid-19-igg-ab-in-serum-or-plasma-by-immunoassay"
        } ],
        "text": "sarsco_v2_covid19_ig_g_ia_ql"
      },
      "subject": {
        "reference": "Patient/23181a6500d3ae927d7f6402ee977a97f126663668c1ce2c835edce1c88e4dc1"
      },
      "encounter": {
        "reference": "Encounter/808013c55b88a41f81bf9970776b008457c14e95b06414e36187a2214f8028a8"
      },
      "effectiveDateTime": "2020-08-20T19:13:00+00:00",
      "valueCodeableConcept": {
        "coding": [ {
          "system": "http://snomed.info/sct",
          "code": "260415000"
        } ]
      }
    },
    "request": {
      "method": "POST",
      "url": "Observation",
      "ifNoneExist": "identifier=https://mein.krankenhaus.de/fhir/NamingSystem/observationId|1c69e9da04891de683238a106868ef08b979d9fb5eb32ee5c306214404227a1b"
    }
  }, {
    "fullUrl": "Observation/bac632b98d41872e242ae818ab9a73c4dd2d1c2b764356b9a1c7c08477b6e287",
    "resource": {
      "resourceType": "Observation",
      "meta": {
        "profile": [ "https://www.netzwerk-universitaetsmedizin.de/fhir/StructureDefinition/sars-cov-2-igm-ser-pl-ql-ia" ]
      },
      "identifier": [ {
        "type": {
          "coding": [ {
            "system": "http://terminology.hl7.org/CodeSystem/v2-0203",
            "code": "OBI",
            "display": "Observation Instance Identifier"
          } ]
        },
        "system": "https://mein.krankenhaus.de/fhir/NamingSystem/observationId",
        "value": "420915e4b46d5c65c4ca0907bfc67a6b4f4355a62996f54bcbdeae0c532ff723",
        "assigner": {
          "reference": "Organization/3a4f3433bce81181bad2d8e0b8fafccf7dc800bc06f29be73dcb38b750a48f9a"
        }
      } ],
      "status": "final",
      "category": [ {
        "coding": [ {
          "system": "http://terminology.hl7.org/CodeSystem/observation-category",
          "code": "laboratory",
          "display": "Laboratory"
        }, {
          "system": "http://loinc.org",
          "code": "26436-6"
        } ]
      } ],
      "code": {
        "coding": [ {
          "system": "http://loinc.org",
          "code": "94564-2",
          "display": "sars-cov-2-covid-19-igm-ab-in-serum-or-plasma-by-immunoassay"
        } ],
        "text": "sarsco_v2_covid19_ig_m_ia_ql"
      },
      "subject": {
        "reference": "Patient/23181a6500d3ae927d7f6402ee977a97f126663668c1ce2c835edce1c88e4dc1"
      },
      "encounter": {
        "reference": "Encounter/808013c55b88a41f81bf9970776b008457c14e95b06414e36187a2214f8028a8"
      },
      "effectiveDateTime": "2020-08-20T19:13:00+00:00",
      "valueCodeableConcept": {
        "coding": [ {
          "system": "http://snomed.info/sct",
          "code": "419984006"
        } ]
      }
    },
    "request": {
      "method": "POST",
      "url": "Observation",
      "ifNoneExist": "identifier=https://mein.krankenhaus.de/fhir/NamingSystem/observationId|bac632b98d41872e242ae818ab9a73c4dd2d1c2b764356b9a1c7c08477b6e287"
    }
  }, {
    "fullUrl": "Observation/f27ac4dce39fa62f8f07b71fce5c284f5102d09cb5e7493413959a676bb1d3ed",
    "resource": {
      "resourceType": "Observation",
      "meta": {
        "profile": [ "https://www.netzwerk-universitaetsmedizin.de/fhir/StructureDefinition/sars-cov-2-igm-ser-pl-ia-acnc" ]
      },
      "identifier": [ {
        "type": {
          "coding": [ {
            "system": "http://terminology.hl7.org/CodeSystem/v2-0203",
            "code": "OBI",
            "display": "Observation Instance Identifier"
          } ]
        },
        "system": "https://mein.krankenhaus.de/fhir/NamingSystem/observationId",
        "value": "a61244f97281f5f4b41712db2bfab238f750fc1210a351b629464d64974009f5",
        "assigner": {
          "reference": "Organization/3a4f3433bce81181bad2d8e0b8fafccf7dc800bc06f29be73dcb38b750a48f9a"
        }
      } ],
      "status": "final",
      "category": [ {
        "coding": [ {
          "system": "http://terminology.hl7.org/CodeSystem/observation-category",
          "code": "laboratory",
          "display": "Laboratory"
        }, {
          "system": "http://loinc.org",
          "code": "26436-6"
        } ]
      } ],
      "code": {
        "coding": [ {
          "system": "http://loinc.org",
          "code": "94506-3",
          "display": "sars-cov-2-covid-19-igm-ab-in-serum-or-plasma-by-immunoassay"
        } ],
        "text": "sarsco_v2_covid19_ig_m_ia_qn"
      },
      "subject": {
        "reference": "Patient/23181a6500d3ae927d7f6402ee977a97f126663668c1ce2c835edce1c88e4dc1"
      },
      "encounter": {
        "reference": "Encounter/808013c55b88a41f81bf9970776b008457c14e95b06414e36187a2214f8028a8"
      },
      "effectiveDateTime": "2020-08-20T19:13:00+00:00",
      "valueQuantity": {
        "value": 61.650059959621814,
        "unit": "[arb'U]/mL",
        "system": "http://unitsofmeasure.org",
        "code": "[arb'U]/mL"
      }
    },
    "request": {
      "method": "POST",
      "url": "Observation",
      "ifNoneExist": "identifier=https://mein.krankenhaus.de/fhir/NamingSystem/observationId|f27ac4dce39fa62f8f07b71fce5c284f5102d09cb5e7493413959a676bb1d3ed"
    }
  }, {
    "fullUrl": "MedicationStatement/87a46d83d3e4704435b61987085d878d81fcc4379a5640bf2fe6477cbd1e98e4",
    "resource": {
      "resourceType": "MedicationStatement",
      "meta": {
        "profile": [ "https://www.netzwerk-universitaetsmedizin.de/fhir/StructureDefinition/pharmacological-therapy" ]
      },
      "identifier": [ {
        "system": "https://mein.krankenhaus.de/fhir/NamingSystem/medicationstatementId",
        "value": "484ebb5ce9afb9fe13fb86bbb98a8e54fd7df694fef36864b0b9d96a7def2807"
      } ],
      "status": "not-taken",
      "medicationCodeableConcept": {
        "coding": [ {
          "system": "http://snomed.info/sct",
          "code": "41549009"
        } ],
        "text": "ACE inhibitors"
      },
      "subject": {
        "reference": "Patient/23181a6500d3ae927d7f6402ee977a97f126663668c1ce2c835edce1c88e4dc1"
      },
      "effectiveDateTime": "2020-06-02T01:21:00+00:00"
    },
    "request": {
      "method": "POST",
      "url": "MedicationStatement",
      "ifNoneExist": "identifier=https://mein.krankenhaus.de/fhir/NamingSystem/medicationstatementId|87a46d83d3e4704435b61987085d878d81fcc4379a5640bf2fe6477cbd1e98e4"
    }
  }, {
    "fullUrl": "MedicationStatement/0e591fd517dadbf6c1146686e2e67c9c6dd8828cc953074c6dd87bd5b906e542",
    "resource": {
      "resourceType": "MedicationStatement",
      "meta": {
        "profile": [ "https://www.netzwerk-universitaetsmedizin.de/fhir/StructureDefinition/pharmacological-therapy" ]
      },
      "identifier": [ {
        "system": "https://mein.krankenhaus.de/fhir/NamingSystem/medicationstatementId",
        "value": "3b87e92fee10334be25b1b9af1b91a4ead8eab644bf9a2b14861975ef0b7e26b"
      } ],
      "status": "active",
      "medicationCodeableConcept": {
        "coding": [ {
          "system": "http://snomed.info/sct",
          "code": "333710000"
        } ],
        "text": "immunoglobulins"
      },
      "subject": {
        "reference": "Patient/23181a6500d3ae927d7f6402ee977a97f126663668c1ce2c835edce1c88e4dc1"
      },
      "effectiveDateTime": "2020-06-02T01:21:00+00:00"
    },
    "request": {
      "method": "POST",
      "url": "MedicationStatement",
      "ifNoneExist": "identifier=https://mein.krankenhaus.de/fhir/NamingSystem/medicationstatementId|0e591fd517dadbf6c1146686e2e67c9c6dd8828cc953074c6dd87bd5b906e542"
    }
  }, {
    "fullUrl": "MedicationStatement/de4d4bf8276db982148d2a9d75250a3d276b3beef491092c5f9b743165f21a41",
    "resource": {
      "resourceType": "MedicationStatement",
      "meta": {
        "profile": [ "https://www.netzwerk-universitaetsmedizin.de/fhir/StructureDefinition/pharmacological-therapy" ]
      },
      "identifier": [ {
        "system": "https://mein.krankenhaus.de/fhir/NamingSystem/medicationstatementId",
        "value": "6e719def6da840bf90047f07c89391d76fa744872782cc3e3b20af5f63bbe82f"
      } ],
      "status": "active",
      "medicationCodeableConcept": {
        "coding": [ {
          "system": "http://snomed.info/sct",
          "code": "41549009"
        } ],
        "text": "ACE inhibitors"
      },
      "subject": {
        "reference": "Patient/23181a6500d3ae927d7f6402ee977a97f126663668c1ce2c835edce1c88e4dc1"
      },
      "effectiveDateTime": "2020-12-01T02:01:00+00:00"
    },
    "request": {
      "method": "POST",
      "url": "MedicationStatement",
      "ifNoneExist": "identifier=https://mein.krankenhaus.de/fhir/NamingSystem/medicationstatementId|de4d4bf8276db982148d2a9d75250a3d276b3beef491092c5f9b743165f21a41"
    }
  }, {
    "fullUrl": "MedicationStatement/6c9a973a1085887e11bae18af2e8c6090ceb1bd2d8cf51a06d4969c32be62379",
    "resource": {
      "resourceType": "MedicationStatement",
      "meta": {
        "profile": [ "https://www.netzwerk-universitaetsmedizin.de/fhir/StructureDefinition/pharmacological-therapy" ]
      },
      "identifier": [ {
        "system": "https://mein.krankenhaus.de/fhir/NamingSystem/medicationstatementId",
        "value": "a92879090cb42d26130df16aff07fce1037164ef39fbc310dc0bf072cdb31278"
      } ],
      "status": "unknown",
      "medicationCodeableConcept": {
        "coding": [ {
          "system": "http://snomed.info/sct",
          "code": "333710000"
        } ],
        "text": "immunoglobulins"
      },
      "subject": {
        "reference": "Patient/23181a6500d3ae927d7f6402ee977a97f126663668c1ce2c835edce1c88e4dc1"
      },
      "effectiveDateTime": "2020-12-01T02:01:00+00:00"
    },
    "request": {
      "method": "POST",
      "url": "MedicationStatement",
      "ifNoneExist": "identifier=https://mein.krankenhaus.de/fhir/NamingSystem/medicationstatementId|6c9a973a1085887e11bae18af2e8c6090ceb1bd2d8cf51a06d4969c32be62379"
    }
  }, {
    "fullUrl": "Observation/a472c43203d9427652b52ca00ee540ee963d56c16fb461f4251637eef6110383",
    "resource": {
      "resourceType": "Observation",
      "meta": {
        "profile": [ "https://www.netzwerk-universitaetsmedizin.de/fhir/StructureDefinition/carbon-dioxide-partial-pressure" ]
      },
      "identifier": [ {
        "type": {
          "coding": [ {
            "system": "http://terminology.hl7.org/CodeSystem/v2-0203",
            "code": "OBI",
            "display": "Observation Instance Identifier"
          } ]
        },
        "system": "https://mein.krankenhaus.de/fhir/NamingSystem/observationId",
        "value": "3ce29e61f7449589de127ae7ae5c72e95e7e9219bcec15d9b2d418e5734f5f3a",
        "assigner": {
          "reference": "Organization/3a4f3433bce81181bad2d8e0b8fafccf7dc800bc06f29be73dcb38b750a48f9a"
        }
      } ],
      "status": "final",
      "category": [ {
        "coding": [ {
          "system": "http://terminology.hl7.org/CodeSystem/observation-category",
          "code": "laboratory",
          "display": "Laboratory"
        }, {
          "system": "http://loinc.org",
          "code": "26436-6",
          "display": "Laboratory studies (set)"
        }, {
          "system": "http://loinc.org",
          "code": "18767-4",
          "display": "Blood gas studies (set)"
        } ]
      } ],
      "code": {
        "coding": [ {
          "system": "http://loinc.org",
          "code": "11557-6"
        } ],
        "text": "Carbon dioxide [Partial pressure] in blood"
      },
      "subject": {
        "reference": "Patient/23181a6500d3ae927d7f6402ee977a97f126663668c1ce2c835edce1c88e4dc1"
      },
      "encounter": {
        "reference": "Encounter/808013c55b88a41f81bf9970776b008457c14e95b06414e36187a2214f8028a8"
      },
      "effectiveDateTime": "2020-10-28T21:42:00+00:00",
      "valueQuantity": {
        "value": 12,
        "unit": "mmHg",
        "system": "http://unitsofmeasure.org",
        "code": "mm[Hg]"
      }
    },
    "request": {
      "method": "POST",
      "url": "Observation",
      "ifNoneExist": "identifier=https://mein.krankenhaus.de/fhir/NamingSystem/observationId|a472c43203d9427652b52ca00ee540ee963d56c16fb461f4251637eef6110383"
    }
  }, {
    "fullUrl": "Observation/f7db84c2d93e01407e60f08abd3cbb4edca702f58c12248547538eb45aecc74d",
    "resource": {
      "resourceType": "Observation",
      "meta": {
        "profile": [ "https://www.netzwerk-universitaetsmedizin.de/fhir/StructureDefinition/oxygen-partial-pressure" ]
      },
      "identifier": [ {
        "type": {
          "coding": [ {
            "system": "http://terminology.hl7.org/CodeSystem/v2-0203",
            "code": "OBI",
            "display": "Observation Instance Identifier"
          } ]
        },
        "system": "https://mein.krankenhaus.de/fhir/NamingSystem/observationId",
        "value": "76cd08a50368a77ca698c7000c96a24aeddfc6e374ae76fcc9fbbcbc8df31370",
        "assigner": {
          "reference": "Organization/3a4f3433bce81181bad2d8e0b8fafccf7dc800bc06f29be73dcb38b750a48f9a"
        }
      } ],
      "status": "final",
      "category": [ {
        "coding": [ {
          "system": "http://terminology.hl7.org/CodeSystem/observation-category",
          "code": "laboratory",
          "display": "Laboratory"
        }, {
          "system": "http://loinc.org",
          "code": "26436-6",
          "display": "Laboratory studies (set)"
        }, {
          "system": "http://loinc.org",
          "code": "18767-4",
          "display": "Blood gas studies (set)"
        } ]
      } ],
      "code": {
        "coding": [ {
          "system": "http://loinc.org",
          "code": "11557-8"
        } ],
        "text": "Oxygen [Partial pressure] in blood"
      },
      "subject": {
        "reference": "Patient/23181a6500d3ae927d7f6402ee977a97f126663668c1ce2c835edce1c88e4dc1"
      },
      "encounter": {
        "reference": "Encounter/808013c55b88a41f81bf9970776b008457c14e95b06414e36187a2214f8028a8"
      },
      "effectiveDateTime": "2020-10-28T21:42:00+00:00",
      "valueQuantity": {
        "value": 26,
        "unit": "mmHg",
        "system": "http://unitsofmeasure.org",
        "code": "mm[Hg]"
      }
    },
    "request": {
      "method": "POST",
      "url": "Observation",
      "ifNoneExist": "identifier=https://mein.krankenhaus.de/fhir/NamingSystem/observationId|f7db84c2d93e01407e60f08abd3cbb4edca702f58c12248547538eb45aecc74d"
    }
  }, {
    "fullUrl": "Observation/09e640893e845536afbbe438a47daf669bc17edc69cd6f3ca4d81defa766c545",
    "resource": {
      "resourceType": "Observation",
      "meta": {
        "profile": [ "https://www.netzwerk-universitaetsmedizin.de/fhir/StructureDefinition/inhaled-oxygen-concentration" ]
      },
      "identifier": [ {
        "type": {
          "coding": [ {
            "system": "http://terminology.hl7.org/CodeSystem/v2-0203",
            "code": "OBI",
            "display": "Observation Instance Identifier"
          } ]
        },
        "system": "https://mein.krankenhaus.de/fhir/NamingSystem/observationId",
        "value": "331004f15f7f4a98003b0c414d41e768a2758421ffe1c7420908484c6d1fbd1a",
        "assigner": {
          "reference": "Organization/3a4f3433bce81181bad2d8e0b8fafccf7dc800bc06f29be73dcb38b750a48f9a"
        }
      } ],
      "status": "final",
      "category": [ {
        "coding": [ {
          "system": "http://terminology.hl7.org/CodeSystem/observation-category",
          "code": "laboratory",
          "display": "Laboratory"
        }, {
          "system": "http://loinc.org",
          "code": "26436-6",
          "display": "Laboratory studies (set)"
        }, {
          "system": "http://loinc.org",
          "code": "18767-4",
          "display": "Blood gas studies (set)"
        } ]
      } ],
      "code": {
        "coding": [ {
          "system": "http://loinc.org",
          "code": "3150-0"
        }, {
          "system": "http://snomed.info/sct",
          "code": "250774007"
        } ],
        "text": "Oxygen [Partial pressure] in blood"
      },
      "subject": {
        "reference": "Patient/23181a6500d3ae927d7f6402ee977a97f126663668c1ce2c835edce1c88e4dc1"
      },
      "encounter": {
        "reference": "Encounter/808013c55b88a41f81bf9970776b008457c14e95b06414e36187a2214f8028a8"
      },
      "effectiveDateTime": "2020-10-28T21:42:00+00:00",
      "valueQuantity": {
        "value": 64.67651373140228,
        "unit": "%",
        "system": "http://unitsofmeasure.org",
        "code": "%"
      }
    },
    "request": {
      "method": "POST",
      "url": "Observation",
      "ifNoneExist": "identifier=https://mein.krankenhaus.de/fhir/NamingSystem/observationId|09e640893e845536afbbe438a47daf669bc17edc69cd6f3ca4d81defa766c545"
    }
  }, {
    "fullUrl": "Observation/4f8e25363ef1ee30255a36af7e8741f29d9b00d5aaab95a7074a9b9850de40d9",
    "resource": {
      "resourceType": "Observation",
      "meta": {
        "profile": [ "https://www.netzwerk-universitaetsmedizin.de/fhir/StructureDefinition/pH" ]
      },
      "identifier": [ {
        "type": {
          "coding": [ {
            "system": "http://terminology.hl7.org/CodeSystem/v2-0203",
            "code": "OBI",
            "display": "Observation Instance Identifier"
          } ]
        },
        "system": "https://mein.krankenhaus.de/fhir/NamingSystem/observationId",
        "value": "56d02ab6465bd220511e1a57914b28d1bed9b18b9204c949d26ab68443d1cd69",
        "assigner": {
          "reference": "Organization/3a4f3433bce81181bad2d8e0b8fafccf7dc800bc06f29be73dcb38b750a48f9a"
        }
      } ],
      "status": "final",
      "category": [ {
        "coding": [ {
          "system": "http://terminology.hl7.org/CodeSystem/observation-category",
          "code": "laboratory",
          "display": "Laboratory"
        }, {
          "system": "http://loinc.org",
          "code": "26436-6",
          "display": "Laboratory studies (set)"
        }, {
          "system": "http://loinc.org",
          "code": "18767-4",
          "display": "Blood gas studies (set)"
        } ]
      } ],
      "code": {
        "coding": [ {
          "system": "http://loinc.org",
          "code": "11558-4"
        } ],
        "text": "pH of Blood"
      },
      "subject": {
        "reference": "Patient/23181a6500d3ae927d7f6402ee977a97f126663668c1ce2c835edce1c88e4dc1"
      },
      "encounter": {
        "reference": "Encounter/808013c55b88a41f81bf9970776b008457c14e95b06414e36187a2214f8028a8"
      },
      "effectiveDateTime": "2020-10-28T21:42:00+00:00",
      "valueQuantity": {
        "value": 12.410962558274582,
        "unit": "pH",
        "system": "http://unitsofmeasure.org",
        "code": "[pH]"
      }
    },
    "request": {
      "method": "POST",
      "url": "Observation",
      "ifNoneExist": "identifier=https://mein.krankenhaus.de/fhir/NamingSystem/observationId|4f8e25363ef1ee30255a36af7e8741f29d9b00d5aaab95a7074a9b9850de40d9"
    }
  }, {
    "fullUrl": "Observation/5a6153430ea9c361ff16eb07434ff5f8e871d434c0fb244beaa9fce71b41d032",
    "resource": {
      "resourceType": "Observation",
      "meta": {
        "profile": [ "https://www.netzwerk-universitaetsmedizin.de/fhir/StructureDefinition/sofa-score" ]
      },
      "identifier": [ {
        "type": {
          "coding": [ {
            "system": "http://terminology.hl7.org/CodeSystem/v2-0203",
            "code": "OBI",
            "display": "Observation Instance Identifier"
          } ]
        },
        "system": "https://mein.krankenhaus.de/fhir/NamingSystem/observationId",
        "value": "5fd13c6184b94f0ca7e9ec0721b82a4e780dc1ecdebb8216fbe36de6533cb4f0",
        "assigner": {
          "reference": "Organization/3a4f3433bce81181bad2d8e0b8fafccf7dc800bc06f29be73dcb38b750a48f9a"
        }
      } ],
      "status": "final",
      "category": [ {
        "coding": [ {
          "system": "http://terminology.hl7.org/CodeSystem/observation-category",
          "code": "survey",
          "display": "Survey"
        } ]
      } ],
      "code": {
        "coding": [ {
          "system": "https://www.netzwerk-universitaetsmedizin.de/fhir/CodeSystem/ecrf-parameter-codes",
          "code": "06",
          "display": "SOFA-Score"
        } ],
        "text": "Sepsis-related organ failure assessment score"
      },
      "subject": {
        "reference": "Patient/23181a6500d3ae927d7f6402ee977a97f126663668c1ce2c835edce1c88e4dc1"
      },
      "encounter": {
        "reference": "Encounter/808013c55b88a41f81bf9970776b008457c14e95b06414e36187a2214f8028a8"
      },
      "effectiveDateTime": "2020-10-28T21:42:00+00:00",
      "valueInteger": 17,
      "component": [ {
        "code": {
          "coding": [ {
            "system": "https://www.netzwerk-universitaetsmedizin.de/fhir/CodeSystem/sofa-score",
            "code": "resp",
            "display": "Respiratory system"
          } ],
          "text": "SOFA Respiratory system scoring category"
        },
        "valueCodeableConcept": {
          "coding": [ {
            "system": "https://www.netzwerk-universitaetsmedizin.de/fhir/CodeSystem/sofa-score",
            "code": "resp4",
            "display": "Respiratory system SOFA score 4"
          } ],
          "text": "PaO2/FiO2 [mmHg (kPa)] < 100 (13.3) and mechanically ventilated"
        }
      }, {
        "code": {
          "coding": [ {
            "system": "https://www.netzwerk-universitaetsmedizin.de/fhir/CodeSystem/sofa-score",
            "code": "ns",
            "display": "Nervous system"
          } ],
          "text": "SOFA Nervous system scoring category"
        },
        "valueCodeableConcept": {
          "coding": [ {
            "system": "https://www.netzwerk-universitaetsmedizin.de/fhir/CodeSystem/sofa-score",
            "code": "ns2",
            "display": "Nervous system SOFA score 2"
          } ],
          "text": "Glasgow Coma Scale (GCS) 10-12"
        }
      }, {
        "code": {
          "coding": [ {
            "system": "https://www.netzwerk-universitaetsmedizin.de/fhir/CodeSystem/sofa-score",
            "code": "kid",
            "display": "Kidneys"
          } ],
          "text": "SOFA Kidneys scoring category"
        },
        "valueCodeableConcept": {
          "coding": [ {
            "system": "https://www.netzwerk-universitaetsmedizin.de/fhir/CodeSystem/sofa-score",
            "code": "kid2",
            "display": "Kidneys SOFA score 2"
          } ],
          "text": "Creatinine (mg/dl) [?mol/L] (or urine output) 2.0-3.4 [171-299]"
        }
      }, {
        "code": {
          "coding": [ {
            "system": "https://www.netzwerk-universitaetsmedizin.de/fhir/CodeSystem/sofa-score",
            "code": "cvs",
            "display": "Cardiovascular system"
          } ],
          "text": "SOFA Cardiovascular system scoring category"
        },
        "valueCodeableConcept": {
          "coding": [ {
            "system": "https://www.netzwerk-universitaetsmedizin.de/fhir/CodeSystem/sofa-score",
            "code": "cvs1",
            "display": "Cardiovascular system SOFA score 1"
          } ],
          "text": "Mean arterial pressure (definitions) < 70 mmHg"
        }
      }, {
        "code": {
          "coding": [ {
            "system": "https://www.netzwerk-universitaetsmedizin.de/fhir/CodeSystem/sofa-score",
            "code": "liv",
            "display": "Liver"
          } ],
          "text": "SOFA Liver scoring category"
        },
        "valueCodeableConcept": {
          "coding": [ {
            "system": "https://www.netzwerk-universitaetsmedizin.de/fhir/CodeSystem/sofa-score",
            "code": "liv4",
            "display": "Liver SOFA score 4"
          } ],
          "text": "Bilirubin (mg/dl) [umol/L] > 12.0 [> 204]"
        }
      }, {
        "code": {
          "coding": [ {
            "system": "https://www.netzwerk-universitaetsmedizin.de/fhir/CodeSystem/sofa-score",
            "code": "coa",
            "display": "Coagulation"
          } ],
          "text": "SOFA Coagulation scoring category"
        },
        "valueCodeableConcept": {
          "coding": [ {
            "system": "https://www.netzwerk-universitaetsmedizin.de/fhir/CodeSystem/sofa-score",
            "code": "coa4",
            "display": "Coagulation SOFA score 4"
          } ],
          "text": "Platelets10^3/ul < 20"
        }
      } ]
    },
    "request": {
      "method": "POST",
      "url": "Observation",
      "ifNoneExist": "identifier=https://mein.krankenhaus.de/fhir/NamingSystem/observationId|5a6153430ea9c361ff16eb07434ff5f8e871d434c0fb244beaa9fce71b41d032"
    }
  }, {
    "fullUrl": "Observation/cffa49cf3c7f69cf72a08066701360df08c18510e9f6a4938a9c81797f03979c",
    "resource": {
      "resourceType": "Observation",
      "meta": {
        "profile": [ "https://www.netzwerk-universitaetsmedizin.de/fhir/StructureDefinition/respiratory-rate" ]
      },
      "identifier": [ {
        "type": {
          "coding": [ {
            "system": "http://terminology.hl7.org/CodeSystem/v2-0203",
            "code": "OBI",
            "display": "Observation Instance Identifier"
          } ]
        },
        "system": "https://mein.krankenhaus.de/fhir/NamingSystem/observationId",
        "value": "7efb0247459a90c1c065d9af5f6ff7cbeeecb0201f62ae410d24dec5edfb1c88",
        "assigner": {
          "reference": "Organization/3a4f3433bce81181bad2d8e0b8fafccf7dc800bc06f29be73dcb38b750a48f9a"
        }
      } ],
      "status": "final",
      "category": [ {
        "coding": [ {
          "system": "http://terminology.hl7.org/CodeSystem/observation-category",
          "code": "vital-signs",
          "display": "Vital Signs"
        } ]
      } ],
      "code": {
        "coding": [ {
          "system": "http://loinc.org",
          "code": "9279-1"
        }, {
          "system": "http://snomed.info/sct",
          "code": "86290005"
        } ],
        "text": "Respiratory rate"
      },
      "subject": {
        "reference": "Patient/23181a6500d3ae927d7f6402ee977a97f126663668c1ce2c835edce1c88e4dc1"
      },
      "encounter": {
        "reference": "Encounter/808013c55b88a41f81bf9970776b008457c14e95b06414e36187a2214f8028a8"
      },
      "effectiveDateTime": "2020-10-28T21:42:00+00:00",
      "valueQuantity": {
        "value": 115,
        "unit": "per minute",
        "system": "http://unitsofmeasure.org",
        "code": "/min"
      }
    },
    "request": {
      "method": "POST",
      "url": "Observation",
      "ifNoneExist": "identifier=https://mein.krankenhaus.de/fhir/NamingSystem/observationId|cffa49cf3c7f69cf72a08066701360df08c18510e9f6a4938a9c81797f03979c"
    }
  }, {
    "fullUrl": "Observation/1d3fafa782c3fa70810cd36f3dd708065b50c220941b8873c2ab1813a8b96362",
    "resource": {
      "resourceType": "Observation",
      "meta": {
        "profile": [ "https://www.netzwerk-universitaetsmedizin.de/fhir/StructureDefinition/blood-pressure" ]
      },
      "identifier": [ {
        "type": {
          "coding": [ {
            "system": "http://terminology.hl7.org/CodeSystem/v2-0203",
            "code": "OBI",
            "display": "Observation Instance Identifier"
          } ]
        },
        "system": "https://mein.krankenhaus.de/fhir/NamingSystem/observationId",
        "value": "07239188a4a7602f460768505e329e4b34b3220b9a004ca174147bb4beb88210",
        "assigner": {
          "reference": "Organization/3a4f3433bce81181bad2d8e0b8fafccf7dc800bc06f29be73dcb38b750a48f9a"
        }
      } ],
      "status": "final",
      "category": [ {
        "coding": [ {
          "system": "http://terminology.hl7.org/CodeSystem/observation-category",
          "code": "vital-signs",
          "display": "Vital Signs"
        } ]
      } ],
      "code": {
        "coding": [ {
          "system": "http://loinc.org",
          "code": "85354-9",
          "display": "Blood pressure panel with all children optional"
        }, {
          "system": "http://snomed.info/sct",
          "code": "75367002",
          "display": "Blood pressure (observable entity)"
        } ],
        "text": "Blood pressure"
      },
      "subject": {
        "reference": "Patient/23181a6500d3ae927d7f6402ee977a97f126663668c1ce2c835edce1c88e4dc1"
      },
      "encounter": {
        "reference": "Encounter/808013c55b88a41f81bf9970776b008457c14e95b06414e36187a2214f8028a8"
      },
      "effectiveDateTime": "2020-10-28T21:42:00+00:00",
      "component": [ {
        "code": {
          "coding": [ {
            "system": "http://loinc.org",
            "code": "8480-6"
          }, {
            "system": "http://snomed.info/sct",
            "code": "271649006"
          } ],
          "text": "Systolic blood pressure"
        },
        "valueQuantity": {
          "value": 28,
          "unit": "mmHg",
          "system": "http://unitsofmeasure.org",
          "code": "mm[Hg]"
        }
      }, {
        "code": {
          "coding": [ {
            "system": "http://loinc.org",
            "code": "8462-4"
          }, {
            "system": "http://snomed.info/sct",
            "code": "271650006"
          } ],
          "text": "Diastolic blood pressure"
        },
        "valueQuantity": {
          "value": 101,
          "unit": "mmHg",
          "system": "http://unitsofmeasure.org",
          "code": "mm[Hg]"
        }
      } ]
    },
    "request": {
      "method": "POST",
      "url": "Observation",
      "ifNoneExist": "identifier=https://mein.krankenhaus.de/fhir/NamingSystem/observationId|1d3fafa782c3fa70810cd36f3dd708065b50c220941b8873c2ab1813a8b96362"
    }
  }, {
    "fullUrl": "Observation/c0f46175b958d30318e99ab2e09504e3ca2dd8e99fa3bd502933963ed1a47169",
    "resource": {
      "resourceType": "Observation",
      "meta": {
        "profile": [ "https://www.netzwerk-universitaetsmedizin.de/fhir/StructureDefinition/body-temperature" ]
      },
      "identifier": [ {
        "type": {
          "coding": [ {
            "system": "http://terminology.hl7.org/CodeSystem/v2-0203",
            "code": "OBI",
            "display": "Observation Instance Identifier"
          } ]
        },
        "system": "https://mein.krankenhaus.de/fhir/NamingSystem/observationId",
        "value": "460d7e99b609e8806f9f7222fdd6f4f516e7f03197c7ebc872dbccb8fff46caf",
        "assigner": {
          "reference": "Organization/3a4f3433bce81181bad2d8e0b8fafccf7dc800bc06f29be73dcb38b750a48f9a"
        }
      } ],
      "status": "final",
      "category": [ {
        "coding": [ {
          "system": "http://terminology.hl7.org/CodeSystem/observation-category",
          "code": "vital-signs",
          "display": "Vital Signs"
        } ]
      } ],
      "code": {
        "coding": [ {
          "system": "http://loinc.org",
          "code": "8310-5"
        }, {
          "system": "http://snomed.info/sct",
          "code": "386725007"
        } ],
        "text": "Body temperature"
      },
      "subject": {
        "reference": "Patient/23181a6500d3ae927d7f6402ee977a97f126663668c1ce2c835edce1c88e4dc1"
      },
      "encounter": {
        "reference": "Encounter/808013c55b88a41f81bf9970776b008457c14e95b06414e36187a2214f8028a8"
      },
      "effectiveDateTime": "2020-10-28T21:42:00+00:00",
      "valueQuantity": {
        "value": 40.94742085840821,
        "unit": "C",
        "system": "http://unitsofmeasure.org",
        "code": "Cel"
      }
    },
    "request": {
      "method": "POST",
      "url": "Observation",
      "ifNoneExist": "identifier=https://mein.krankenhaus.de/fhir/NamingSystem/observationId|c0f46175b958d30318e99ab2e09504e3ca2dd8e99fa3bd502933963ed1a47169"
    }
  }, {
    "fullUrl": "Observation/c63039680f8310ba5c022876bbaf843a72622b09212fede0c681ddce9a497436",
    "resource": {
      "resourceType": "Observation",
      "meta": {
        "profile": [ "https://www.netzwerk-universitaetsmedizin.de/fhir/StructureDefinition/study-inclusion-covid-19" ]
      },
      "identifier": [ {
        "type": {
          "coding": [ {
            "system": "http://terminology.hl7.org/CodeSystem/v2-0203",
            "code": "OBI",
            "display": "Observation Instance Identifier"
          } ]
        },
        "system": "https://mein.krankenhaus.de/fhir/NamingSystem/observationId",
        "value": "307e1d48541b78d905b0bffc0fe8c1b5726eb8700de4e9abaed0e037a5ac0fd4",
        "assigner": {
          "reference": "Organization/3a4f3433bce81181bad2d8e0b8fafccf7dc800bc06f29be73dcb38b750a48f9a"
        }
      } ],
      "status": "final",
      "category": [ {
        "coding": [ {
          "system": "http://terminology.hl7.org/CodeSystem/observation-category",
          "code": "survey",
          "display": "Survey"
        } ]
      } ],
      "code": {
        "coding": [ {
          "system": "https://www.netzwerk-universitaetsmedizin.de/fhir/CodeSystem/ecrf-parameter-codes",
          "code": "02",
          "display": "Study inclusion due to Covid-19"
        } ],
        "text": "Confirmed Covid-19 diagnosis as main reason for enrolment in the study"
      },
      "subject": {
        "reference": "Patient/23181a6500d3ae927d7f6402ee977a97f126663668c1ce2c835edce1c88e4dc1"
      },
      "_effectiveDateTime": {
        "extension": [ {
          "url": "http://hl7.org/fhir/StructureDefinition/data-absent-reason",
          "valueCode": "unknown"
        } ]
      },
      "valueCodeableConcept": {
        "coding": [ {
          "system": "http://snomed.info/sct",
          "code": "261665006"
        } ]
      }
    },
    "request": {
      "method": "POST",
      "url": "Observation",
      "ifNoneExist": "identifier=https://mein.krankenhaus.de/fhir/NamingSystem/observationId|c63039680f8310ba5c022876bbaf843a72622b09212fede0c681ddce9a497436"
    }
  }, {
    "fullUrl": "Observation/ab5ed4e53b9bbbbe769b56aaf5163107aee00fc9759db3689103c8ed618da174",
    "resource": {
      "resourceType": "Observation",
      "meta": {
        "profile": [ "https://www.netzwerk-universitaetsmedizin.de/fhir/StructureDefinition/interventional-clinical-trial-participation" ]
      },
      "identifier": [ {
        "type": {
          "coding": [ {
            "system": "http://terminology.hl7.org/CodeSystem/v2-0203",
            "code": "OBI",
            "display": "Observation Instance Identifier"
          } ]
        },
        "system": "https://mein.krankenhaus.de/fhir/NamingSystem/observationId",
        "value": "ae91e91aba77ca999e301b6a7bbfbecb747cb135309bdf520953b16e6bf1a0aa",
        "assigner": {
          "reference": "Organization/3a4f3433bce81181bad2d8e0b8fafccf7dc800bc06f29be73dcb38b750a48f9a"
        }
      } ],
      "status": "final",
      "category": [ {
        "coding": [ {
          "system": "http://terminology.hl7.org/CodeSystem/observation-category",
          "code": "survey",
          "display": "Survey"
        } ]
      } ],
      "code": {
        "coding": [ {
          "system": "https://www.netzwerk-universitaetsmedizin.de/fhir/CodeSystem/ecrf-parameter-codes",
          "code": "03",
          "display": "Participation in interventional clinical trials"
        } ],
        "text": "Has the patient participated in one or more interventional clinical trials?"
      },
      "subject": {
        "reference": "Patient/23181a6500d3ae927d7f6402ee977a97f126663668c1ce2c835edce1c88e4dc1"
      },
      "_effectiveDateTime": {
        "extension": [ {
          "url": "http://hl7.org/fhir/StructureDefinition/data-absent-reason",
          "valueCode": "unknown"
        } ]
      },
      "valueCodeableConcept": {
        "coding": [ {
          "system": "http://snomed.info/sct",
          "code": "373066001"
        } ]
      }
    },
    "request": {
      "method": "POST",
      "url": "Observation",
      "ifNoneExist": "identifier=https://mein.krankenhaus.de/fhir/NamingSystem/observationId|ab5ed4e53b9bbbbe769b56aaf5163107aee00fc9759db3689103c8ed618da174"
    }
  } ]
}