{
  "resourceType": "Bundle",
  "meta": {
    "profile": [ "https://www.netzwerk-universitaetsmedizin.de/fhir/StructureDefinition/gecco-bundle" ]
  },
  "type": "transaction",
  "entry": [ {
    "fullUrl": "Patient/c48379323faf3a200ae9b56bcb1c2cc800089882f9227e65ddcb4ba61b258c2d",
    "resource": {
      "resourceType": "Patient",
      "meta": {
        "profile": [ "https://www.netzwerk-universitaetsmedizin.de/fhir/StructureDefinition/Patient" ]
      },
      "extension": [ {
        "url": "https://www.netzwerk-universitaetsmedizin.de/fhir/StructureDefinition/age",
        "extension": [ {
          "url": "dateTimeOfDocumentation",
          "_valueDateTime": {
            "extension": [ {
              "url": "http://hl7.org/fhir/StructureDefinition/data-absent-reason",
              "valueCode": "unknown"
            } ]
          }
        }, {
          "url": "age",
          "valueAge": {
            "value": 48,
            "unit": "years",
            "system": "http://unitsofmeasure.org",
            "code": "a"
          }
        } ]
      }, {
        "url": "https://www.netzwerk-universitaetsmedizin.de/fhir/StructureDefinition/ethnic-group",
        "valueCoding": {
          "system": "urn:oid:2.16.840.1.113883.6.238",
          "code": "2135-2"
        }
      } ],
      "identifier": [ {
        "type": {
          "coding": [ {
            "system": "http://terminology.hl7.org/CodeSystem/v2-0203",
            "code": "MR"
          } ]
        },
        "system": "https://mein.krankenhaus.de/fhir/NamingSystem/patientId",
        "value": "synthetic_patient_421016638",
        "assigner": {
          "reference": "Organization/3a4f3433bce81181bad2d8e0b8fafccf7dc800bc06f29be73dcb38b750a48f9a"
        }
      } ],
      "birthDate": "1971-08-20"
    },
    "request": {
      "method": "POST",
      "url": "Patient",
      "ifNoneExist": "identifier=https://mein.krankenhaus.de/fhir/NamingSystem/patientId|c48379323faf3a200ae9b56bcb1c2cc800089882f9227e65ddcb4ba61b258c2d"
    }
  }, {
    "fullUrl": "Organization/3a4f3433bce81181bad2d8e0b8fafccf7dc800bc06f29be73dcb38b750a48f9a",
    "resource": {
      "resourceType": "Organization",
      "name": "Mein Krankenhaus"
    },
    "request": {
      "method": "POST",
      "url": "Organization",
      "ifNoneExist": "identifier=null|3a4f3433bce81181bad2d8e0b8fafccf7dc800bc06f29be73dcb38b750a48f9a"
    }
  }, {
    "fullUrl": "Encounter/184ddffacaca9034f9f1cb4ae18ffe2306480c502a98c52500388e8b96542598",
    "resource": {
      "resourceType": "Encounter",
      "identifier": [ {
        "system": "https://mein.krankenhaus.de/fhir/NamingSystem/encounterId",
        "value": "580faf87bbbed2143d48f4ba12c1241edd50ec47f7315f464ee91e4f78c7a615",
        "assigner": {
          "reference": "Organization/3a4f3433bce81181bad2d8e0b8fafccf7dc800bc06f29be73dcb38b750a48f9a"
        }
      } ],
      "status": "unknown",
      "class": {
        "system": "http://terminology.hl7.org/CodeSystem/v3-ActCode",
        "code": "IMP",
        "display": "inpatient encounter"
      },
      "subject": {
        "reference": "Patient/c48379323faf3a200ae9b56bcb1c2cc800089882f9227e65ddcb4ba61b258c2d"
      }
    },
    "request": {
      "method": "POST",
      "url": "Encounter",
      "ifNoneExist": "identifier=https://mein.krankenhaus.de/fhir/NamingSystem/encounterId|184ddffacaca9034f9f1cb4ae18ffe2306480c502a98c52500388e8b96542598"
    }
  }, {
    "fullUrl": "Condition/7ae3e2eb3c367d877afb6ffd14bcaffdfc540f3f483fd460c5eff3650556ea30",
    "resource": {
      "resourceType": "Condition",
      "meta": {
        "profile": [ "https://www.netzwerk-universitaetsmedizin.de/fhir/StructureDefinition/diagnosis-covid-19" ]
      },
      "identifier": [ {
        "system": "https://mein.krankenhaus.de/fhir/NamingSystem/conditionId",
        "value": "cc2d23a556a67467829ff258889a64521b456e33d0bb7c81a83990b0fc6c9336"
      } ],
      "clinicalStatus": {
        "coding": [ {
          "system": "http://terminology.hl7.org/CodeSystem/condition-clinical",
          "code": "active",
          "display": "Active"
        } ]
      },
      "verificationStatus": {
        "coding": [ {
          "system": "http://terminology.hl7.org/CodeSystem/condition-ver-status",
          "code": "confirmed",
          "display": "Confirmed"
        }, {
          "system": "http://snomed.info/sct",
          "code": "410605003",
          "display": "Confirmed present (qualifier value)"
        } ]
      },
      "category": [ {
        "coding": [ {
          "system": "http://snomed.info/sct",
          "code": "394807007",
          "display": "Infectious diseases (specialty) (qualifier value)"
        } ]
      } ],
      "code": {
        "coding": [ {
          "system": "http://snomed.info/sct",
          "code": "840539006",
          "display": "Disease caused by Severe acute respiratory syndrome coronavirus 2 (disorder)"
        } ]
      },
      "subject": {
        "reference": "Patient/c48379323faf3a200ae9b56bcb1c2cc800089882f9227e65ddcb4ba61b258c2d"
      },
      "encounter": {
        "reference": "Encounter/184ddffacaca9034f9f1cb4ae18ffe2306480c502a98c52500388e8b96542598"
      },
      "_recordedDate": {
        "extension": [ {
          "url": "http://hl7.org/fhir/StructureDefinition/data-absent-reason",
          "valueCode": "unknown"
        } ]
      },
      "stage": [ {
        "summary": {
          "coding": [ {
            "system": "http://snomed.info/sct",
            "code": "255604002"
          } ]
        },
        "type": {
          "coding": [ {
            "system": "http://loinc.org",
            "code": "88859-4"
          } ]
        }
      } ]
    },
    "request": {
      "method": "POST",
      "url": "Condition",
      "ifNoneExist": "identifier=https://mein.krankenhaus.de/fhir/NamingSystem/conditionId|7ae3e2eb3c367d877afb6ffd14bcaffdfc540f3f483fd460c5eff3650556ea30"
    }
  }, {
    "fullUrl": "Condition/fa8cbc570dd1cc7634e4d7f4b8781183c01c50be633d2c9a3809505b4a9c3c79",
    "resource": {
      "resourceType": "Condition",
      "meta": {
        "profile": [ "https://www.netzwerk-universitaetsmedizin.de/fhir/StructureDefinition/chronic-lung-diseases" ]
      },
      "identifier": [ {
        "system": "https://mein.krankenhaus.de/fhir/NamingSystem/conditionId",
        "value": "470ee3514e70cca5cc96cbe52e61f4f71326108fddb71a6839834dd1b27383f2"
      } ],
      "clinicalStatus": {
        "coding": [ {
          "system": "http://terminology.hl7.org/CodeSystem/condition-clinical",
          "code": "active",
          "display": "Active"
        } ]
      },
      "verificationStatus": {
        "coding": [ {
          "system": "http://terminology.hl7.org/CodeSystem/condition-ver-status",
          "code": "confirmed",
          "display": "Confirmed"
        }, {
          "system": "http://snomed.info/sct",
          "code": "410605003",
          "display": "Confirmed present (qualifier value)"
        } ]
      },
      "category": [ {
        "coding": [ {
          "system": "http://snomed.info/sct",
          "code": "418112009",
          "display": "Pulmonary medicine (qualifier value)"
        } ]
      } ],
      "code": {
        "coding": [ {
          "system": "http://fhir.de/CodeSystem/dimdi/icd-10-gm",
          "version": "2021",
          "code": "J45.9"
        }, {
          "system": "http://snomed.info/sct",
          "code": "195967001"
        } ]
      },
      "subject": {
        "reference": "Patient/c48379323faf3a200ae9b56bcb1c2cc800089882f9227e65ddcb4ba61b258c2d"
      },
      "encounter": {
        "reference": "Encounter/184ddffacaca9034f9f1cb4ae18ffe2306480c502a98c52500388e8b96542598"
      },
      "_recordedDate": {
        "extension": [ {
          "url": "http://hl7.org/fhir/StructureDefinition/data-absent-reason",
          "valueCode": "unknown"
        } ]
      }
    },
    "request": {
      "method": "POST",
      "url": "Condition",
      "ifNoneExist": "identifier=https://mein.krankenhaus.de/fhir/NamingSystem/conditionId|fa8cbc570dd1cc7634e4d7f4b8781183c01c50be633d2c9a3809505b4a9c3c79"
    }
  }, {
    "fullUrl": "Condition/15eb42576897d73e1c07221fda671707e2cf8b463612be0cb123fe49861ad75b",
    "resource": {
      "resourceType": "Condition",
      "meta": {
        "profile": [ "https://www.netzwerk-universitaetsmedizin.de/fhir/StructureDefinition/chronic-lung-diseases" ]
      },
      "identifier": [ {
        "system": "https://mein.krankenhaus.de/fhir/NamingSystem/conditionId",
        "value": "cd9688c5ba13a35ee8068c3ff0df2c9e9741c73a97a57510b9e48e846f4b9a32"
      } ],
      "clinicalStatus": {
        "coding": [ {
          "system": "http://terminology.hl7.org/CodeSystem/condition-clinical",
          "code": "active",
          "display": "Active"
        } ]
      },
      "verificationStatus": {
        "coding": [ {
          "system": "http://terminology.hl7.org/CodeSystem/condition-ver-status",
          "code": "confirmed",
          "display": "Confirmed"
        }, {
          "system": "http://snomed.info/sct",
          "code": "410605003",
          "display": "Confirmed present (qualifier value)"
        } ]
      },
      "category": [ {
        "coding": [ {
          "system": "http://snomed.info/sct",
          "code": "418112009",
          "display": "Pulmonary medicine (qualifier value)"
        } ]
      } ],
      "code": {
        "coding": [ {
          "system": "http://fhir.de/CodeSystem/dimdi/icd-10-gm",
          "version": "2021",
          "code": "J44.9"
        }, {
          "system": "http://snomed.info/sct",
          "code": "13645005"
        } ]
      },
      "subject": {
        "reference": "Patient/c48379323faf3a200ae9b56bcb1c2cc800089882f9227e65ddcb4ba61b258c2d"
      },
      "encounter": {
        "reference": "Encounter/184ddffacaca9034f9f1cb4ae18ffe2306480c502a98c52500388e8b96542598"
      },
      "_recordedDate": {
        "extension": [ {
          "url": "http://hl7.org/fhir/StructureDefinition/data-absent-reason",
          "valueCode": "unknown"
        } ]
      }
    },
    "request": {
      "method": "POST",
      "url": "Condition",
      "ifNoneExist": "identifier=https://mein.krankenhaus.de/fhir/NamingSystem/conditionId|15eb42576897d73e1c07221fda671707e2cf8b463612be0cb123fe49861ad75b"
    }
  }, {
    "fullUrl": "Condition/1b1dff34832fa1e6d31096a56fb0be245ffa1a0f66ebc182a6451707063bf25b",
    "resource": {
      "resourceType": "Condition",
      "meta": {
        "profile": [ "https://www.netzwerk-universitaetsmedizin.de/fhir/StructureDefinition/chronic-lung-diseases" ]
      },
      "identifier": [ {
        "system": "https://mein.krankenhaus.de/fhir/NamingSystem/conditionId",
        "value": "c8b8d6d5a3485ffbe209a6e52713e7aa2a06b4fd20555e41fb0064f65c269655"
      } ],
      "verificationStatus": {
        "coding": [ {
          "system": "http://terminology.hl7.org/CodeSystem/condition-ver-status",
          "code": "refuted",
          "display": "Refuted"
        }, {
          "system": "http://snomed.info/sct",
          "code": "410594000",
          "display": "Definitely NOT present (qualifier value)"
        } ]
      },
      "category": [ {
        "coding": [ {
          "system": "http://snomed.info/sct",
          "code": "418112009",
          "display": "Pulmonary medicine (qualifier value)"
        } ]
      } ],
      "code": {
        "coding": [ {
          "system": "http://fhir.de/CodeSystem/dimdi/icd-10-gm",
          "version": "2021",
          "code": "J84.1"
        }, {
          "system": "http://snomed.info/sct",
          "code": "51615001"
        } ]
      },
      "subject": {
        "reference": "Patient/c48379323faf3a200ae9b56bcb1c2cc800089882f9227e65ddcb4ba61b258c2d"
      },
      "encounter": {
        "reference": "Encounter/184ddffacaca9034f9f1cb4ae18ffe2306480c502a98c52500388e8b96542598"
      },
      "_recordedDate": {
        "extension": [ {
          "url": "http://hl7.org/fhir/StructureDefinition/data-absent-reason",
          "valueCode": "unknown"
        } ]
      }
    },
    "request": {
      "method": "POST",
      "url": "Condition",
      "ifNoneExist": "identifier=https://mein.krankenhaus.de/fhir/NamingSystem/conditionId|1b1dff34832fa1e6d31096a56fb0be245ffa1a0f66ebc182a6451707063bf25b"
    }
  }, {
    "fullUrl": "Condition/c975178f83ce26f8ec5a3ed541b1661af543b4c290ea9f4b0f4e355256739c8b",
    "resource": {
      "resourceType": "Condition",
      "meta": {
        "profile": [ "https://www.netzwerk-universitaetsmedizin.de/fhir/StructureDefinition/chronic-lung-diseases" ]
      },
      "identifier": [ {
        "system": "https://mein.krankenhaus.de/fhir/NamingSystem/conditionId",
        "value": "69ad7601a4913a8f1b844b55c41c613544e0d3155eea6256b22478b83c77b036"
      } ],
      "clinicalStatus": {
        "coding": [ {
          "system": "http://terminology.hl7.org/CodeSystem/condition-clinical",
          "code": "active",
          "display": "Active"
        } ]
      },
      "verificationStatus": {
        "coding": [ {
          "system": "http://terminology.hl7.org/CodeSystem/condition-ver-status",
          "code": "confirmed",
          "display": "Confirmed"
        }, {
          "system": "http://snomed.info/sct",
          "code": "410605003",
          "display": "Confirmed present (qualifier value)"
        } ]
      },
      "category": [ {
        "coding": [ {
          "system": "http://snomed.info/sct",
          "code": "418112009",
          "display": "Pulmonary medicine (qualifier value)"
        } ]
      } ],
      "code": {
        "coding": [ {
          "system": "http://fhir.de/CodeSystem/dimdi/icd-10-gm",
          "version": "2021",
          "code": "I27.0"
        }, {
          "system": "http://snomed.info/sct",
          "code": "70995007"
        } ]
      },
      "subject": {
        "reference": "Patient/c48379323faf3a200ae9b56bcb1c2cc800089882f9227e65ddcb4ba61b258c2d"
      },
      "encounter": {
        "reference": "Encounter/184ddffacaca9034f9f1cb4ae18ffe2306480c502a98c52500388e8b96542598"
      },
      "_recordedDate": {
        "extension": [ {
          "url": "http://hl7.org/fhir/StructureDefinition/data-absent-reason",
          "valueCode": "unknown"
        } ]
      }
    },
    "request": {
      "method": "POST",
      "url": "Condition",
      "ifNoneExist": "identifier=https://mein.krankenhaus.de/fhir/NamingSystem/conditionId|c975178f83ce26f8ec5a3ed541b1661af543b4c290ea9f4b0f4e355256739c8b"
    }
  }, {
    "fullUrl": "Condition/66f4523cad847b110fb738f9e589bef5cece397ade8cbc9f28f6b1f935b65012",
    "resource": {
      "resourceType": "Condition",
      "meta": {
        "profile": [ "https://www.netzwerk-universitaetsmedizin.de/fhir/StructureDefinition/chronic-lung-diseases" ]
      },
      "identifier": [ {
        "system": "https://mein.krankenhaus.de/fhir/NamingSystem/conditionId",
        "value": "6746b68776535465782bd11fb3b5138451004d18b3e8646fc96ea494a3deef8f"
      } ],
      "clinicalStatus": {
        "coding": [ {
          "system": "http://terminology.hl7.org/CodeSystem/condition-clinical",
          "code": "active",
          "display": "Active"
        } ]
      },
      "verificationStatus": {
        "coding": [ {
          "system": "http://terminology.hl7.org/CodeSystem/condition-ver-status",
          "code": "confirmed",
          "display": "Confirmed"
        }, {
          "system": "http://snomed.info/sct",
          "code": "410605003",
          "display": "Confirmed present (qualifier value)"
        } ]
      },
      "category": [ {
        "coding": [ {
          "system": "http://snomed.info/sct",
          "code": "418112009",
          "display": "Pulmonary medicine (qualifier value)"
        } ]
      } ],
      "code": {
        "coding": [ {
          "system": "http://fhir.de/CodeSystem/dimdi/icd-10-gm",
          "version": "2021",
          "code": "E66.29"
        }, {
          "system": "http://snomed.info/sct",
          "code": "190966007"
        } ]
      },
      "subject": {
        "reference": "Patient/c48379323faf3a200ae9b56bcb1c2cc800089882f9227e65ddcb4ba61b258c2d"
      },
      "encounter": {
        "reference": "Encounter/184ddffacaca9034f9f1cb4ae18ffe2306480c502a98c52500388e8b96542598"
      },
      "_recordedDate": {
        "extension": [ {
          "url": "http://hl7.org/fhir/StructureDefinition/data-absent-reason",
          "valueCode": "unknown"
        } ]
      }
    },
    "request": {
      "method": "POST",
      "url": "Condition",
      "ifNoneExist": "identifier=https://mein.krankenhaus.de/fhir/NamingSystem/conditionId|66f4523cad847b110fb738f9e589bef5cece397ade8cbc9f28f6b1f935b65012"
    }
  }, {
    "fullUrl": "Condition/eb54adfa2fb0ad6f33a4719bfc79d796efac16814eead64ebb1dad53e4d7b1b9",
    "resource": {
      "resourceType": "Condition",
      "meta": {
        "profile": [ "https://www.netzwerk-universitaetsmedizin.de/fhir/StructureDefinition/chronic-lung-diseases" ]
      },
      "identifier": [ {
        "system": "https://mein.krankenhaus.de/fhir/NamingSystem/conditionId",
        "value": "b5e415c58f26ffbf23573bb344eaca82982c435b7aef40d0ce524c90d4cc0fc7"
      } ],
      "clinicalStatus": {
        "coding": [ {
          "system": "http://terminology.hl7.org/CodeSystem/condition-clinical",
          "code": "active",
          "display": "Active"
        } ]
      },
      "verificationStatus": {
        "coding": [ {
          "system": "http://terminology.hl7.org/CodeSystem/condition-ver-status",
          "code": "confirmed",
          "display": "Confirmed"
        }, {
          "system": "http://snomed.info/sct",
          "code": "410605003",
          "display": "Confirmed present (qualifier value)"
        } ]
      },
      "category": [ {
        "coding": [ {
          "system": "http://snomed.info/sct",
          "code": "418112009",
          "display": "Pulmonary medicine (qualifier value)"
        } ]
      } ],
      "code": {
        "coding": [ {
          "system": "http://fhir.de/CodeSystem/dimdi/icd-10-gm",
          "version": "2021",
          "code": "G47.3"
        }, {
          "system": "http://snomed.info/sct",
          "code": "73430006"
        } ]
      },
      "subject": {
        "reference": "Patient/c48379323faf3a200ae9b56bcb1c2cc800089882f9227e65ddcb4ba61b258c2d"
      },
      "encounter": {
        "reference": "Encounter/184ddffacaca9034f9f1cb4ae18ffe2306480c502a98c52500388e8b96542598"
      },
      "_recordedDate": {
        "extension": [ {
          "url": "http://hl7.org/fhir/StructureDefinition/data-absent-reason",
          "valueCode": "unknown"
        } ]
      }
    },
    "request": {
      "method": "POST",
      "url": "Condition",
      "ifNoneExist": "identifier=https://mein.krankenhaus.de/fhir/NamingSystem/conditionId|eb54adfa2fb0ad6f33a4719bfc79d796efac16814eead64ebb1dad53e4d7b1b9"
    }
  }, {
    "fullUrl": "Condition/81d9959a8ec27c6c4e690c2604facc065eca9cc96115ec7729f5ea3a12858b98",
    "resource": {
      "resourceType": "Condition",
      "meta": {
        "profile": [ "https://www.netzwerk-universitaetsmedizin.de/fhir/StructureDefinition/chronic-lung-diseases" ]
      },
      "identifier": [ {
        "system": "https://mein.krankenhaus.de/fhir/NamingSystem/conditionId",
        "value": "ae941c12edfd3667ce1b145153d95341a111bb4e956ad629b09ab9f6b77f46c3"
      } ],
      "clinicalStatus": {
        "coding": [ {
          "system": "http://terminology.hl7.org/CodeSystem/condition-clinical",
          "code": "active",
          "display": "Active"
        } ]
      },
      "verificationStatus": {
        "coding": [ {
          "system": "http://terminology.hl7.org/CodeSystem/condition-ver-status",
          "code": "confirmed",
          "display": "Confirmed"
        }, {
          "system": "http://snomed.info/sct",
          "code": "410605003",
          "display": "Confirmed present (qualifier value)"
        } ]
      },
      "category": [ {
        "coding": [ {
          "system": "http://snomed.info/sct",
          "code": "418112009",
          "display": "Pulmonary medicine (qualifier value)"
        } ]
      } ],
      "code": {
        "coding": [ {
          "system": "http://fhir.de/CodeSystem/dimdi/icd-10-gm",
          "version": "2021",
          "code": "G47.31"
        }, {
          "system": "http://snomed.info/sct",
          "code": "78275009"
        } ]
      },
      "subject": {
        "reference": "Patient/c48379323faf3a200ae9b56bcb1c2cc800089882f9227e65ddcb4ba61b258c2d"
      },
      "encounter": {
        "reference": "Encounter/184ddffacaca9034f9f1cb4ae18ffe2306480c502a98c52500388e8b96542598"
      },
      "_recordedDate": {
        "extension": [ {
          "url": "http://hl7.org/fhir/StructureDefinition/data-absent-reason",
          "valueCode": "unknown"
        } ]
      }
    },
    "request": {
      "method": "POST",
      "url": "Condition",
      "ifNoneExist": "identifier=https://mein.krankenhaus.de/fhir/NamingSystem/conditionId|81d9959a8ec27c6c4e690c2604facc065eca9cc96115ec7729f5ea3a12858b98"
    }
  }, {
    "fullUrl": "Condition/ebb80ebf3f66fe17eff2d00c64246bf4b3f797a547cda1d8f8d4e67c2f4393eb",
    "resource": {
      "resourceType": "Condition",
      "meta": {
        "profile": [ "https://www.netzwerk-universitaetsmedizin.de/fhir/StructureDefinition/chronic-lung-diseases" ]
      },
      "identifier": [ {
        "system": "https://mein.krankenhaus.de/fhir/NamingSystem/conditionId",
        "value": "2e1364301ea0ad088bcdce8229792ee0b9c7ade24971393021f16f1787435f34"
      } ],
      "clinicalStatus": {
        "coding": [ {
          "system": "http://terminology.hl7.org/CodeSystem/condition-clinical",
          "code": "active",
          "display": "Active"
        } ]
      },
      "verificationStatus": {
        "coding": [ {
          "system": "http://terminology.hl7.org/CodeSystem/condition-ver-status",
          "code": "confirmed",
          "display": "Confirmed"
        }, {
          "system": "http://snomed.info/sct",
          "code": "410605003",
          "display": "Confirmed present (qualifier value)"
        } ]
      },
      "category": [ {
        "coding": [ {
          "system": "http://snomed.info/sct",
          "code": "418112009",
          "display": "Pulmonary medicine (qualifier value)"
        } ]
      } ],
      "code": {
        "coding": [ {
          "system": "http://fhir.de/CodeSystem/dimdi/icd-10-gm",
          "version": "2021",
          "code": "E84.9"
        }, {
          "system": "http://snomed.info/sct",
          "code": "190905008"
        } ]
      },
      "subject": {
        "reference": "Patient/c48379323faf3a200ae9b56bcb1c2cc800089882f9227e65ddcb4ba61b258c2d"
      },
      "encounter": {
        "reference": "Encounter/184ddffacaca9034f9f1cb4ae18ffe2306480c502a98c52500388e8b96542598"
      },
      "_recordedDate": {
        "extension": [ {
          "url": "http://hl7.org/fhir/StructureDefinition/data-absent-reason",
          "valueCode": "unknown"
        } ]
      }
    },
    "request": {
      "method": "POST",
      "url": "Condition",
      "ifNoneExist": "identifier=https://mein.krankenhaus.de/fhir/NamingSystem/conditionId|ebb80ebf3f66fe17eff2d00c64246bf4b3f797a547cda1d8f8d4e67c2f4393eb"
    }
  }, {
    "fullUrl": "Condition/41df19b877adf44106c5e7464d5e3b5c2b253e16ae980f3bfffe781693d46970",
    "resource": {
      "resourceType": "Condition",
      "meta": {
        "profile": [ "https://www.netzwerk-universitaetsmedizin.de/fhir/StructureDefinition/human-immunodeficiency-virus-infection" ]
      },
      "identifier": [ {
        "system": "https://mein.krankenhaus.de/fhir/NamingSystem/conditionId",
        "value": "adeacfb5bc5fb55ec0f58c466cd479440efaf6028d63211c26e170fd4eafd578"
      } ],
      "clinicalStatus": {
        "coding": [ {
          "system": "http://terminology.hl7.org/CodeSystem/condition-clinical",
          "code": "active",
          "display": "Active"
        } ]
      },
      "verificationStatus": {
        "coding": [ {
          "system": "http://terminology.hl7.org/CodeSystem/condition-ver-status",
          "code": "confirmed",
          "display": "Confirmed"
        }, {
          "system": "http://snomed.info/sct",
          "code": "410605003",
          "display": "Confirmed present (qualifier value)"
        } ]
      },
      "category": [ {
        "coding": [ {
          "system": "http://snomed.info/sct",
          "code": "394807007",
          "display": "Infectious diseases (specialty) (qualifier value)"
        } ]
      } ],
      "code": {
        "coding": [ {
          "system": "http://fhir.de/CodeSystem/dimdi/icd-10-gm",
          "version": "2021",
          "code": "B24"
        }, {
          "system": "http://snomed.info/sct",
          "code": "86406008"
        } ]
      },
      "subject": {
        "reference": "Patient/c48379323faf3a200ae9b56bcb1c2cc800089882f9227e65ddcb4ba61b258c2d"
      },
      "encounter": {
        "reference": "Encounter/184ddffacaca9034f9f1cb4ae18ffe2306480c502a98c52500388e8b96542598"
      },
      "_recordedDate": {
        "extension": [ {
          "url": "http://hl7.org/fhir/StructureDefinition/data-absent-reason",
          "valueCode": "unknown"
        } ]
      }
    },
    "request": {
      "method": "POST",
      "url": "Condition",
      "ifNoneExist": "identifier=https://mein.krankenhaus.de/fhir/NamingSystem/conditionId|41df19b877adf44106c5e7464d5e3b5c2b253e16ae980f3bfffe781693d46970"
    }
  }, {
    "fullUrl": "Condition/49c7b0bd560de66509536a4983108b113102a1681b7c0fac00568b5757718c96",
    "resource": {
      "resourceType": "Condition",
      "meta": {
        "profile": [ "https://www.netzwerk-universitaetsmedizin.de/fhir/StructureDefinition/diabetes-mellitus" ]
      },
      "identifier": [ {
        "system": "https://mein.krankenhaus.de/fhir/NamingSystem/conditionId",
        "value": "b5533987db5c9bc65caa377a79cec74f717d4ad66d11d8fadf457b167895e8f6"
      } ],
      "verificationStatus": {
        "coding": [ {
          "system": "http://terminology.hl7.org/CodeSystem/condition-ver-status",
          "code": "confirmed",
          "display": "Confirmed"
        }, {
          "system": "http://snomed.info/sct",
          "code": "410605003",
          "display": "Confirmed present (qualifier value)"
        } ]
      },
      "category": [ {
        "coding": [ {
          "system": "http://snomed.info/sct",
          "code": "408475000",
          "display": "Diabetic medicine (qualifier value)"
        } ]
      } ],
      "code": {
        "coding": [ {
          "system": "http://snomed.info/sct",
          "code": "237599002"
        } ]
      },
      "subject": {
        "reference": "Patient/c48379323faf3a200ae9b56bcb1c2cc800089882f9227e65ddcb4ba61b258c2d"
      },
      "encounter": {
        "reference": "Encounter/184ddffacaca9034f9f1cb4ae18ffe2306480c502a98c52500388e8b96542598"
      },
      "_recordedDate": {
        "extension": [ {
          "url": "http://hl7.org/fhir/StructureDefinition/data-absent-reason",
          "valueCode": "unknown"
        } ]
      }
    },
    "request": {
      "method": "POST",
      "url": "Condition",
      "ifNoneExist": "identifier=https://mein.krankenhaus.de/fhir/NamingSystem/conditionId|49c7b0bd560de66509536a4983108b113102a1681b7c0fac00568b5757718c96"
    }
  }, {
    "fullUrl": "Condition/4d2138e2b91ed189bc853293aae505629c90eb13940b83f73443c5ceadc1de47",
    "resource": {
      "resourceType": "Condition",
      "meta": {
        "profile": [ "https://www.netzwerk-universitaetsmedizin.de/fhir/StructureDefinition/malignant-neoplastic-disease" ]
      },
      "modifierExtension": [ {
        "url": "https://www.netzwerk-universitaetsmedizin.de/fhir/StructureDefinition/uncertainty-of-presence",
        "valueCodeableConcept": {
          "coding": [ {
            "system": "http://snomed.info/sct",
            "code": "261665006",
            "display": "Unknown (qualifier value)"
          } ],
          "text": "Presence unknown."
        }
      } ],
      "identifier": [ {
        "system": "https://mein.krankenhaus.de/fhir/NamingSystem/conditionId",
        "value": "88ae931c10d60741f086071b38f14bb73286bbb5257d97089da35f689f54f074"
      } ],
      "category": [ {
        "coding": [ {
          "system": "http://snomed.info/sct",
          "code": "394593009",
          "display": "Medical oncology (qualifier value)"
        } ]
      } ],
      "code": {
        "coding": [ {
          "system": "http://fhir.de/CodeSystem/dimdi/icd-10-gm",
          "version": "2021",
          "code": "C80.9"
        }, {
          "system": "http://snomed.info/sct",
          "code": "363346000"
        } ]
      },
      "subject": {
        "reference": "Patient/c48379323faf3a200ae9b56bcb1c2cc800089882f9227e65ddcb4ba61b258c2d"
      },
      "encounter": {
        "reference": "Encounter/184ddffacaca9034f9f1cb4ae18ffe2306480c502a98c52500388e8b96542598"
      },
      "_recordedDate": {
        "extension": [ {
          "url": "http://hl7.org/fhir/StructureDefinition/data-absent-reason",
          "valueCode": "unknown"
        } ]
      }
    },
    "request": {
      "method": "POST",
      "url": "Condition",
      "ifNoneExist": "identifier=https://mein.krankenhaus.de/fhir/NamingSystem/conditionId|4d2138e2b91ed189bc853293aae505629c90eb13940b83f73443c5ceadc1de47"
    }
  }, {
    "fullUrl": "Condition/1d9680049298726297c32f34e724e945ddcee5ef8fcabba56e21d1a6ea66de23",
    "resource": {
      "resourceType": "Condition",
      "meta": {
        "profile": [ "https://www.netzwerk-universitaetsmedizin.de/fhir/StructureDefinition/chronic-neurological-mental-diseases" ]
      },
      "identifier": [ {
        "system": "https://mein.krankenhaus.de/fhir/NamingSystem/conditionId",
        "value": "7731bb6842075b0ba5b121cf0325d25698703ca53683892668c612621c938df4"
      } ],
      "verificationStatus": {
        "coding": [ {
          "system": "http://terminology.hl7.org/CodeSystem/condition-ver-status",
          "code": "refuted",
          "display": "Refuted"
        }, {
          "system": "http://snomed.info/sct",
          "code": "410594000",
          "display": "Definitely NOT present (qualifier value)"
        } ]
      },
      "category": [ {
        "coding": [ {
          "system": "http://snomed.info/sct",
          "code": "394591006",
          "display": "Neurology (qualifier value)"
        }, {
          "system": "http://snomed.info/sct",
          "code": "394587001",
          "display": "Psychiatry (qualifier value)"
        } ]
      } ],
      "code": {
        "coding": [ {
          "system": "http://fhir.de/CodeSystem/dimdi/icd-10-gm",
          "version": "2021",
          "code": "G20"
        }, {
          "system": "http://snomed.info/sct",
          "code": "49049000"
        } ]
      },
      "subject": {
        "reference": "Patient/c48379323faf3a200ae9b56bcb1c2cc800089882f9227e65ddcb4ba61b258c2d"
      },
      "encounter": {
        "reference": "Encounter/184ddffacaca9034f9f1cb4ae18ffe2306480c502a98c52500388e8b96542598"
      },
      "_recordedDate": {
        "extension": [ {
          "url": "http://hl7.org/fhir/StructureDefinition/data-absent-reason",
          "valueCode": "unknown"
        } ]
      }
    },
    "request": {
      "method": "POST",
      "url": "Condition",
      "ifNoneExist": "identifier=https://mein.krankenhaus.de/fhir/NamingSystem/conditionId|1d9680049298726297c32f34e724e945ddcee5ef8fcabba56e21d1a6ea66de23"
    }
  }, {
    "fullUrl": "Condition/59db8944492854c18b8bca14dbc6606992514d1456205ed5bb6d5d1af14f5b1e",
    "resource": {
      "resourceType": "Condition",
      "meta": {
        "profile": [ "https://www.netzwerk-universitaetsmedizin.de/fhir/StructureDefinition/chronic-neurological-mental-diseases" ]
      },
      "modifierExtension": [ {
        "url": "https://www.netzwerk-universitaetsmedizin.de/fhir/StructureDefinition/uncertainty-of-presence",
        "valueCodeableConcept": {
          "coding": [ {
            "system": "http://snomed.info/sct",
            "code": "261665006",
            "display": "Unknown (qualifier value)"
          } ],
          "text": "Presence unknown."
        }
      } ],
      "identifier": [ {
        "system": "https://mein.krankenhaus.de/fhir/NamingSystem/conditionId",
        "value": "0036746845a434b9bdbd72124cf17c4ce595c2eb0aa5d1e9539d3b069c836be6"
      } ],
      "category": [ {
        "coding": [ {
          "system": "http://snomed.info/sct",
          "code": "394591006",
          "display": "Neurology (qualifier value)"
        }, {
          "system": "http://snomed.info/sct",
          "code": "394587001",
          "display": "Psychiatry (qualifier value)"
        } ]
      } ],
      "code": {
        "coding": [ {
          "system": "http://fhir.de/CodeSystem/dimdi/icd-10-gm",
          "version": "2021",
          "code": "F03"
        }, {
          "system": "http://snomed.info/sct",
          "code": "52448006"
        } ]
      },
      "subject": {
        "reference": "Patient/c48379323faf3a200ae9b56bcb1c2cc800089882f9227e65ddcb4ba61b258c2d"
      },
      "encounter": {
        "reference": "Encounter/184ddffacaca9034f9f1cb4ae18ffe2306480c502a98c52500388e8b96542598"
      },
      "_recordedDate": {
        "extension": [ {
          "url": "http://hl7.org/fhir/StructureDefinition/data-absent-reason",
          "valueCode": "unknown"
        } ]
      }
    },
    "request": {
      "method": "POST",
      "url": "Condition",
      "ifNoneExist": "identifier=https://mein.krankenhaus.de/fhir/NamingSystem/conditionId|59db8944492854c18b8bca14dbc6606992514d1456205ed5bb6d5d1af14f5b1e"
    }
  }, {
    "fullUrl": "Condition/5697004199ee529bcb1448ac48959791e777bab2b25355a5d5844182bff2ff3e",
    "resource": {
      "resourceType": "Condition",
      "meta": {
        "profile": [ "https://www.netzwerk-universitaetsmedizin.de/fhir/StructureDefinition/chronic-neurological-mental-diseases" ]
      },
      "identifier": [ {
        "system": "https://mein.krankenhaus.de/fhir/NamingSystem/conditionId",
        "value": "7a8557422f3ac4e3de61d4de60d17e6a12d9bf84ed3cc98c22095d45112281d8"
      } ],
      "clinicalStatus": {
        "coding": [ {
          "system": "http://terminology.hl7.org/CodeSystem/condition-clinical",
          "code": "active",
          "display": "Active"
        } ]
      },
      "verificationStatus": {
        "coding": [ {
          "system": "http://terminology.hl7.org/CodeSystem/condition-ver-status",
          "code": "confirmed",
          "display": "Confirmed"
        }, {
          "system": "http://snomed.info/sct",
          "code": "410605003",
          "display": "Confirmed present (qualifier value)"
        } ]
      },
      "category": [ {
        "coding": [ {
          "system": "http://snomed.info/sct",
          "code": "394591006",
          "display": "Neurology (qualifier value)"
        }, {
          "system": "http://snomed.info/sct",
          "code": "394587001",
          "display": "Psychiatry (qualifier value)"
        } ]
      } ],
      "code": {
        "coding": [ {
          "system": "http://fhir.de/CodeSystem/dimdi/icd-10-gm",
          "version": "2021",
          "code": "G35"
        }, {
          "system": "http://snomed.info/sct",
          "code": "24700007"
        } ]
      },
      "subject": {
        "reference": "Patient/c48379323faf3a200ae9b56bcb1c2cc800089882f9227e65ddcb4ba61b258c2d"
      },
      "encounter": {
        "reference": "Encounter/184ddffacaca9034f9f1cb4ae18ffe2306480c502a98c52500388e8b96542598"
      },
      "_recordedDate": {
        "extension": [ {
          "url": "http://hl7.org/fhir/StructureDefinition/data-absent-reason",
          "valueCode": "unknown"
        } ]
      }
    },
    "request": {
      "method": "POST",
      "url": "Condition",
      "ifNoneExist": "identifier=https://mein.krankenhaus.de/fhir/NamingSystem/conditionId|5697004199ee529bcb1448ac48959791e777bab2b25355a5d5844182bff2ff3e"
    }
  }, {
    "fullUrl": "Condition/e8e600fdebe2bcbf50b375f7d70148b42c91b3fc936641a790078102c3087b9b",
    "resource": {
      "resourceType": "Condition",
      "meta": {
        "profile": [ "https://www.netzwerk-universitaetsmedizin.de/fhir/StructureDefinition/chronic-neurological-mental-diseases" ]
      },
      "modifierExtension": [ {
        "url": "https://www.netzwerk-universitaetsmedizin.de/fhir/StructureDefinition/uncertainty-of-presence",
        "valueCodeableConcept": {
          "coding": [ {
            "system": "http://snomed.info/sct",
            "code": "261665006",
            "display": "Unknown (qualifier value)"
          } ],
          "text": "Presence unknown."
        }
      } ],
      "identifier": [ {
        "system": "https://mein.krankenhaus.de/fhir/NamingSystem/conditionId",
        "value": "010f827d799f72074ab5b7d17d6dde523763fa3fdf098c436342ba593686ecec"
      } ],
      "category": [ {
        "coding": [ {
          "system": "http://snomed.info/sct",
          "code": "394591006",
          "display": "Neurology (qualifier value)"
        }, {
          "system": "http://snomed.info/sct",
          "code": "394587001",
          "display": "Psychiatry (qualifier value)"
        } ]
      } ],
      "code": {
        "coding": [ {
          "system": "http://fhir.de/CodeSystem/dimdi/icd-10-gm",
          "version": "2021",
          "code": "G70.9"
        }, {
          "system": "http://snomed.info/sct",
          "code": "257277002"
        } ]
      },
      "subject": {
        "reference": "Patient/c48379323faf3a200ae9b56bcb1c2cc800089882f9227e65ddcb4ba61b258c2d"
      },
      "encounter": {
        "reference": "Encounter/184ddffacaca9034f9f1cb4ae18ffe2306480c502a98c52500388e8b96542598"
      },
      "_recordedDate": {
        "extension": [ {
          "url": "http://hl7.org/fhir/StructureDefinition/data-absent-reason",
          "valueCode": "unknown"
        } ]
      }
    },
    "request": {
      "method": "POST",
      "url": "Condition",
      "ifNoneExist": "identifier=https://mein.krankenhaus.de/fhir/NamingSystem/conditionId|e8e600fdebe2bcbf50b375f7d70148b42c91b3fc936641a790078102c3087b9b"
    }
  }, {
    "fullUrl": "Condition/f155ed8fd39f6bbe779c966e1d0a0aab18c3e837a4a3efb391a799d31ced11c2",
    "resource": {
      "resourceType": "Condition",
      "meta": {
        "profile": [ "https://www.netzwerk-universitaetsmedizin.de/fhir/StructureDefinition/chronic-neurological-mental-diseases" ]
      },
      "identifier": [ {
        "system": "https://mein.krankenhaus.de/fhir/NamingSystem/conditionId",
        "value": "a1a0e243a7740ef0b64c4123b5c693423b53f754dc9fda7d65b1fdef69a105d7"
      } ],
      "verificationStatus": {
        "coding": [ {
          "system": "http://terminology.hl7.org/CodeSystem/condition-ver-status",
          "code": "refuted",
          "display": "Refuted"
        }, {
          "system": "http://snomed.info/sct",
          "code": "410594000",
          "display": "Definitely NOT present (qualifier value)"
        } ]
      },
      "category": [ {
        "coding": [ {
          "system": "http://snomed.info/sct",
          "code": "394591006",
          "display": "Neurology (qualifier value)"
        }, {
          "system": "http://snomed.info/sct",
          "code": "394587001",
          "display": "Psychiatry (qualifier value)"
        } ]
      } ],
      "code": {
        "coding": [ {
          "system": "http://fhir.de/CodeSystem/dimdi/icd-10-gm",
          "version": "2021",
          "code": "G40.9"
        }, {
          "system": "http://snomed.info/sct",
          "code": "84757009"
        } ]
      },
      "subject": {
        "reference": "Patient/c48379323faf3a200ae9b56bcb1c2cc800089882f9227e65ddcb4ba61b258c2d"
      },
      "encounter": {
        "reference": "Encounter/184ddffacaca9034f9f1cb4ae18ffe2306480c502a98c52500388e8b96542598"
      },
      "_recordedDate": {
        "extension": [ {
          "url": "http://hl7.org/fhir/StructureDefinition/data-absent-reason",
          "valueCode": "unknown"
        } ]
      }
    },
    "request": {
      "method": "POST",
      "url": "Condition",
      "ifNoneExist": "identifier=https://mein.krankenhaus.de/fhir/NamingSystem/conditionId|f155ed8fd39f6bbe779c966e1d0a0aab18c3e837a4a3efb391a799d31ced11c2"
    }
  }, {
    "fullUrl": "Condition/2c8ca879b49792298240178dd2b3e167a6905c5fdb729dc6a9927a730f95986f",
    "resource": {
      "resourceType": "Condition",
      "meta": {
        "profile": [ "https://www.netzwerk-universitaetsmedizin.de/fhir/StructureDefinition/chronic-neurological-mental-diseases" ]
      },
      "identifier": [ {
        "system": "https://mein.krankenhaus.de/fhir/NamingSystem/conditionId",
        "value": "b8a55584bb421cfe735149f6c50224fd29a68fd9bd7d8c5a3ddac3ec2e1213ce"
      } ],
      "clinicalStatus": {
        "coding": [ {
          "system": "http://terminology.hl7.org/CodeSystem/condition-clinical",
          "code": "active",
          "display": "Active"
        } ]
      },
      "verificationStatus": {
        "coding": [ {
          "system": "http://terminology.hl7.org/CodeSystem/condition-ver-status",
          "code": "confirmed",
          "display": "Confirmed"
        }, {
          "system": "http://snomed.info/sct",
          "code": "410605003",
          "display": "Confirmed present (qualifier value)"
        } ]
      },
      "category": [ {
        "coding": [ {
          "system": "http://snomed.info/sct",
          "code": "394591006",
          "display": "Neurology (qualifier value)"
        }, {
          "system": "http://snomed.info/sct",
          "code": "394587001",
          "display": "Psychiatry (qualifier value)"
        } ]
      } ],
      "code": {
        "coding": [ {
          "system": "http://fhir.de/CodeSystem/dimdi/icd-10-gm",
          "version": "2021",
          "code": "G43.9"
        }, {
          "system": "http://snomed.info/sct",
          "code": "37796009"
        } ]
      },
      "subject": {
        "reference": "Patient/c48379323faf3a200ae9b56bcb1c2cc800089882f9227e65ddcb4ba61b258c2d"
      },
      "encounter": {
        "reference": "Encounter/184ddffacaca9034f9f1cb4ae18ffe2306480c502a98c52500388e8b96542598"
      },
      "_recordedDate": {
        "extension": [ {
          "url": "http://hl7.org/fhir/StructureDefinition/data-absent-reason",
          "valueCode": "unknown"
        } ]
      }
    },
    "request": {
      "method": "POST",
      "url": "Condition",
      "ifNoneExist": "identifier=https://mein.krankenhaus.de/fhir/NamingSystem/conditionId|2c8ca879b49792298240178dd2b3e167a6905c5fdb729dc6a9927a730f95986f"
    }
  }, {
    "fullUrl": "Condition/23cc6b5998ea87c91e4d2d499b04cf3c6c85fcbfb7e0ad3552089527e9584362",
    "resource": {
      "resourceType": "Condition",
      "meta": {
        "profile": [ "https://www.netzwerk-universitaetsmedizin.de/fhir/StructureDefinition/chronic-neurological-mental-diseases" ]
      },
      "modifierExtension": [ {
        "url": "https://www.netzwerk-universitaetsmedizin.de/fhir/StructureDefinition/uncertainty-of-presence",
        "valueCodeableConcept": {
          "coding": [ {
            "system": "http://snomed.info/sct",
            "code": "261665006",
            "display": "Unknown (qualifier value)"
          } ],
          "text": "Presence unknown."
        }
      } ],
      "identifier": [ {
        "system": "https://mein.krankenhaus.de/fhir/NamingSystem/conditionId",
        "value": "fea08d34800de09640d9d4fb199083b21b91d2f6a7a88c3ae0346fe17415a24a"
      } ],
      "category": [ {
        "coding": [ {
          "system": "http://snomed.info/sct",
          "code": "394591006",
          "display": "Neurology (qualifier value)"
        }, {
          "system": "http://snomed.info/sct",
          "code": "394587001",
          "display": "Psychiatry (qualifier value)"
        } ]
      } ],
      "code": {
        "coding": [ {
          "system": "http://fhir.de/CodeSystem/dimdi/icd-10-gm",
          "version": "2021",
          "code": "I69.4"
        }, {
          "system": "http://snomed.info/sct",
          "code": "440140008"
        } ]
      },
      "subject": {
        "reference": "Patient/c48379323faf3a200ae9b56bcb1c2cc800089882f9227e65ddcb4ba61b258c2d"
      },
      "encounter": {
        "reference": "Encounter/184ddffacaca9034f9f1cb4ae18ffe2306480c502a98c52500388e8b96542598"
      },
      "_recordedDate": {
        "extension": [ {
          "url": "http://hl7.org/fhir/StructureDefinition/data-absent-reason",
          "valueCode": "unknown"
        } ]
      }
    },
    "request": {
      "method": "POST",
      "url": "Condition",
      "ifNoneExist": "identifier=https://mein.krankenhaus.de/fhir/NamingSystem/conditionId|23cc6b5998ea87c91e4d2d499b04cf3c6c85fcbfb7e0ad3552089527e9584362"
    }
  }, {
    "fullUrl": "Condition/bffa542f3db5ea27019e7bb801329ce20114ffae2b04c89298ebe27e6e204208",
    "resource": {
      "resourceType": "Condition",
      "meta": {
        "profile": [ "https://www.netzwerk-universitaetsmedizin.de/fhir/StructureDefinition/chronic-neurological-mental-diseases" ]
      },
      "identifier": [ {
        "system": "https://mein.krankenhaus.de/fhir/NamingSystem/conditionId",
        "value": "1781077a2159bbdad1c781c20fa83019c6823ef0d4914a6fd013db440c189df8"
      } ],
      "clinicalStatus": {
        "coding": [ {
          "system": "http://terminology.hl7.org/CodeSystem/condition-clinical",
          "code": "active",
          "display": "Active"
        } ]
      },
      "verificationStatus": {
        "coding": [ {
          "system": "http://terminology.hl7.org/CodeSystem/condition-ver-status",
          "code": "confirmed",
          "display": "Confirmed"
        }, {
          "system": "http://snomed.info/sct",
          "code": "410605003",
          "display": "Confirmed present (qualifier value)"
        } ]
      },
      "category": [ {
        "coding": [ {
          "system": "http://snomed.info/sct",
          "code": "394591006",
          "display": "Neurology (qualifier value)"
        }, {
          "system": "http://snomed.info/sct",
          "code": "394587001",
          "display": "Psychiatry (qualifier value)"
        } ]
      } ],
      "code": {
        "coding": [ {
          "system": "http://fhir.de/CodeSystem/dimdi/icd-10-gm",
          "version": "2021",
          "code": "Z86.7"
        }, {
          "system": "http://snomed.info/sct",
          "code": "429993008"
        } ]
      },
      "subject": {
        "reference": "Patient/c48379323faf3a200ae9b56bcb1c2cc800089882f9227e65ddcb4ba61b258c2d"
      },
      "encounter": {
        "reference": "Encounter/184ddffacaca9034f9f1cb4ae18ffe2306480c502a98c52500388e8b96542598"
      },
      "_recordedDate": {
        "extension": [ {
          "url": "http://hl7.org/fhir/StructureDefinition/data-absent-reason",
          "valueCode": "unknown"
        } ]
      }
    },
    "request": {
      "method": "POST",
      "url": "Condition",
      "ifNoneExist": "identifier=https://mein.krankenhaus.de/fhir/NamingSystem/conditionId|bffa542f3db5ea27019e7bb801329ce20114ffae2b04c89298ebe27e6e204208"
    }
  }, {
    "fullUrl": "Condition/f51f0dbc07bd10b4284eaed46622f7b0d58dd668e1716cefb1f68e672b12cf41",
    "resource": {
      "resourceType": "Condition",
      "meta": {
        "profile": [ "https://www.netzwerk-universitaetsmedizin.de/fhir/StructureDefinition/chronic-neurological-mental-diseases" ]
      },
      "modifierExtension": [ {
        "url": "https://www.netzwerk-universitaetsmedizin.de/fhir/StructureDefinition/uncertainty-of-presence",
        "valueCodeableConcept": {
          "coding": [ {
            "system": "http://snomed.info/sct",
            "code": "261665006",
            "display": "Unknown (qualifier value)"
          } ],
          "text": "Presence unknown."
        }
      } ],
      "identifier": [ {
        "system": "https://mein.krankenhaus.de/fhir/NamingSystem/conditionId",
        "value": "89475ae4723852b8a37d4b49de059a0fbcb4e2bc0d873a1793b8a47f639d6c31"
      } ],
      "category": [ {
        "coding": [ {
          "system": "http://snomed.info/sct",
          "code": "394591006",
          "display": "Neurology (qualifier value)"
        }, {
          "system": "http://snomed.info/sct",
          "code": "394587001",
          "display": "Psychiatry (qualifier value)"
        } ]
      } ],
      "code": {
        "coding": [ {
          "system": "http://fhir.de/CodeSystem/dimdi/icd-10-gm",
          "version": "2021",
          "code": "F29"
        }, {
          "system": "http://snomed.info/sct",
          "code": "69322001"
        } ]
      },
      "subject": {
        "reference": "Patient/c48379323faf3a200ae9b56bcb1c2cc800089882f9227e65ddcb4ba61b258c2d"
      },
      "encounter": {
        "reference": "Encounter/184ddffacaca9034f9f1cb4ae18ffe2306480c502a98c52500388e8b96542598"
      },
      "_recordedDate": {
        "extension": [ {
          "url": "http://hl7.org/fhir/StructureDefinition/data-absent-reason",
          "valueCode": "unknown"
        } ]
      }
    },
    "request": {
      "method": "POST",
      "url": "Condition",
      "ifNoneExist": "identifier=https://mein.krankenhaus.de/fhir/NamingSystem/conditionId|f51f0dbc07bd10b4284eaed46622f7b0d58dd668e1716cefb1f68e672b12cf41"
    }
  }, {
    "fullUrl": "Condition/3aec26e40ceb22d89e8472921232798b9af705ff255166e037cf7dc6f9c7554d",
    "resource": {
      "resourceType": "Condition",
      "meta": {
        "profile": [ "https://www.netzwerk-universitaetsmedizin.de/fhir/StructureDefinition/chronic-neurological-mental-diseases" ]
      },
      "identifier": [ {
        "system": "https://mein.krankenhaus.de/fhir/NamingSystem/conditionId",
        "value": "4e414e7e54c2e49cbd439165c3ad023bd907a0171307ef6603f963c5c71c800a"
      } ],
      "clinicalStatus": {
        "coding": [ {
          "system": "http://terminology.hl7.org/CodeSystem/condition-clinical",
          "code": "active",
          "display": "Active"
        } ]
      },
      "verificationStatus": {
        "coding": [ {
          "system": "http://terminology.hl7.org/CodeSystem/condition-ver-status",
          "code": "confirmed",
          "display": "Confirmed"
        }, {
          "system": "http://snomed.info/sct",
          "code": "410605003",
          "display": "Confirmed present (qualifier value)"
        } ]
      },
      "category": [ {
        "coding": [ {
          "system": "http://snomed.info/sct",
          "code": "394591006",
          "display": "Neurology (qualifier value)"
        }, {
          "system": "http://snomed.info/sct",
          "code": "394587001",
          "display": "Psychiatry (qualifier value)"
        } ]
      } ],
      "code": {
        "coding": [ {
          "system": "http://fhir.de/CodeSystem/dimdi/icd-10-gm",
          "version": "2021",
          "code": "F32.9"
        }, {
          "system": "http://snomed.info/sct",
          "code": "35489007"
        } ]
      },
      "subject": {
        "reference": "Patient/c48379323faf3a200ae9b56bcb1c2cc800089882f9227e65ddcb4ba61b258c2d"
      },
      "encounter": {
        "reference": "Encounter/184ddffacaca9034f9f1cb4ae18ffe2306480c502a98c52500388e8b96542598"
      },
      "_recordedDate": {
        "extension": [ {
          "url": "http://hl7.org/fhir/StructureDefinition/data-absent-reason",
          "valueCode": "unknown"
        } ]
      }
    },
    "request": {
      "method": "POST",
      "url": "Condition",
      "ifNoneExist": "identifier=https://mein.krankenhaus.de/fhir/NamingSystem/conditionId|3aec26e40ceb22d89e8472921232798b9af705ff255166e037cf7dc6f9c7554d"
    }
  }, {
    "fullUrl": "Condition/a5f4101aca970e0849a5c438f10dc635fc7f3f83959ae3349e96ec5d68667b76",
    "resource": {
      "resourceType": "Condition",
      "meta": {
        "profile": [ "https://www.netzwerk-universitaetsmedizin.de/fhir/StructureDefinition/chronic-neurological-mental-diseases" ]
      },
      "identifier": [ {
        "system": "https://mein.krankenhaus.de/fhir/NamingSystem/conditionId",
        "value": "e35f9c4c9d0cf27205fa73362556c83db7884a3eb4049a53f56113033794a5bb"
      } ],
      "verificationStatus": {
        "coding": [ {
          "system": "http://terminology.hl7.org/CodeSystem/condition-ver-status",
          "code": "refuted",
          "display": "Refuted"
        }, {
          "system": "http://snomed.info/sct",
          "code": "410594000",
          "display": "Definitely NOT present (qualifier value)"
        } ]
      },
      "category": [ {
        "coding": [ {
          "system": "http://snomed.info/sct",
          "code": "394591006",
          "display": "Neurology (qualifier value)"
        }, {
          "system": "http://snomed.info/sct",
          "code": "394587001",
          "display": "Psychiatry (qualifier value)"
        } ]
      } ],
      "code": {
        "coding": [ {
          "system": "http://fhir.de/CodeSystem/dimdi/icd-10-gm",
          "version": "2021",
          "code": "F41.9"
        }, {
          "system": "http://snomed.info/sct",
          "code": "197480006"
        } ]
      },
      "subject": {
        "reference": "Patient/c48379323faf3a200ae9b56bcb1c2cc800089882f9227e65ddcb4ba61b258c2d"
      },
      "encounter": {
        "reference": "Encounter/184ddffacaca9034f9f1cb4ae18ffe2306480c502a98c52500388e8b96542598"
      },
      "_recordedDate": {
        "extension": [ {
          "url": "http://hl7.org/fhir/StructureDefinition/data-absent-reason",
          "valueCode": "unknown"
        } ]
      }
    },
    "request": {
      "method": "POST",
      "url": "Condition",
      "ifNoneExist": "identifier=https://mein.krankenhaus.de/fhir/NamingSystem/conditionId|a5f4101aca970e0849a5c438f10dc635fc7f3f83959ae3349e96ec5d68667b76"
    }
  }, {
    "fullUrl": "Condition/2099ca1e372d8f084406143e6b9a0ff8599cdf64d1a206856ff3b88bb37878cb",
    "resource": {
      "resourceType": "Condition",
      "meta": {
        "profile": [ "https://www.netzwerk-universitaetsmedizin.de/fhir/StructureDefinition/chronic-kidney-diseases" ]
      },
      "modifierExtension": [ {
        "url": "https://www.netzwerk-universitaetsmedizin.de/fhir/StructureDefinition/uncertainty-of-presence",
        "valueCodeableConcept": {
          "coding": [ {
            "system": "http://snomed.info/sct",
            "code": "261665006",
            "display": "Unknown (qualifier value)"
          } ],
          "text": "Presence unknown."
        }
      } ],
      "identifier": [ {
        "system": "https://mein.krankenhaus.de/fhir/NamingSystem/conditionId",
        "value": "5766852795f26b2dd0a0699179d1f0d7179f309eecb95544506b25c8465a1758"
      } ],
      "category": [ {
        "coding": [ {
          "system": "http://snomed.info/sct",
          "code": "394589003",
          "display": "Nephrology (qualifier value)"
        } ]
      } ],
      "code": {
        "coding": [ {
          "system": "http://fhir.de/CodeSystem/dimdi/icd-10-gm",
          "version": "2021",
          "code": "N18.9"
        }, {
          "system": "http://snomed.info/sct",
          "code": "709044004"
        } ]
      },
      "subject": {
        "reference": "Patient/c48379323faf3a200ae9b56bcb1c2cc800089882f9227e65ddcb4ba61b258c2d"
      },
      "encounter": {
        "reference": "Encounter/184ddffacaca9034f9f1cb4ae18ffe2306480c502a98c52500388e8b96542598"
      },
      "_recordedDate": {
        "extension": [ {
          "url": "http://hl7.org/fhir/StructureDefinition/data-absent-reason",
          "valueCode": "unknown"
        } ]
      }
    },
    "request": {
      "method": "POST",
      "url": "Condition",
      "ifNoneExist": "identifier=https://mein.krankenhaus.de/fhir/NamingSystem/conditionId|2099ca1e372d8f084406143e6b9a0ff8599cdf64d1a206856ff3b88bb37878cb"
    }
  }, {
    "fullUrl": "Condition/5039baea536e10ed30223ddcb92536c1965d5777f7249a14964edcaab737a22a",
    "resource": {
      "resourceType": "Condition",
      "meta": {
        "profile": [ "https://www.netzwerk-universitaetsmedizin.de/fhir/StructureDefinition/gastrointestinal-ulcers" ]
      },
      "identifier": [ {
        "system": "https://mein.krankenhaus.de/fhir/NamingSystem/conditionId",
        "value": "309f4039bc6663de343b4b2300870d530799cee7586f668be64a103b4ffea7f1"
      } ],
      "clinicalStatus": {
        "coding": [ {
          "system": "http://terminology.hl7.org/CodeSystem/condition-clinical",
          "code": "active",
          "display": "Active"
        } ]
      },
      "verificationStatus": {
        "coding": [ {
          "system": "http://terminology.hl7.org/CodeSystem/condition-ver-status",
          "code": "confirmed",
          "display": "Confirmed"
        }, {
          "system": "http://snomed.info/sct",
          "code": "410605003",
          "display": "Confirmed present (qualifier value)"
        } ]
      },
      "category": [ {
        "coding": [ {
          "system": "http://snomed.info/sct",
          "code": "394584008",
          "display": "Gastroenterology (qualifier value))"
        } ]
      } ],
      "code": {
        "coding": [ {
          "system": "http://fhir.de/CodeSystem/dimdi/icd-10-gm",
          "version": "2021",
          "code": "K28"
        }, {
          "system": "http://snomed.info/sct",
          "code": "40845000"
        } ]
      },
      "subject": {
        "reference": "Patient/c48379323faf3a200ae9b56bcb1c2cc800089882f9227e65ddcb4ba61b258c2d"
      },
      "encounter": {
        "reference": "Encounter/184ddffacaca9034f9f1cb4ae18ffe2306480c502a98c52500388e8b96542598"
      },
      "_recordedDate": {
        "extension": [ {
          "url": "http://hl7.org/fhir/StructureDefinition/data-absent-reason",
          "valueCode": "unknown"
        } ]
      }
    },
    "request": {
      "method": "POST",
      "url": "Condition",
      "ifNoneExist": "identifier=https://mein.krankenhaus.de/fhir/NamingSystem/conditionId|5039baea536e10ed30223ddcb92536c1965d5777f7249a14964edcaab737a22a"
    }
  }, {
    "fullUrl": "Observation/3d47246b0deb89747775b8faef79fb333c309ee938f0b1a01609004d57063cbe",
    "resource": {
      "resourceType": "Observation",
      "meta": {
        "profile": [ "https://www.netzwerk-universitaetsmedizin.de/fhir/StructureDefinition/smoking-status" ]
      },
      "identifier": [ {
        "system": "https://mein.krankenhaus.de/fhir/NamingSystem/observationId",
        "value": "d633115f887d88c3c8b9f41be47dc1c1c406807501ad84f76aee32e4aac2fe5f"
      } ],
      "status": "final",
      "category": [ {
        "coding": [ {
          "system": "http://terminology.hl7.org/CodeSystem/observation-category",
          "code": "social-history",
          "display": "Social History"
        } ]
      } ],
      "code": {
        "coding": [ {
          "system": "http://loinc.org",
          "code": "72166-2"
        } ]
      },
      "subject": {
        "reference": "Patient/c48379323faf3a200ae9b56bcb1c2cc800089882f9227e65ddcb4ba61b258c2d"
      },
      "encounter": {
        "reference": "Encounter/184ddffacaca9034f9f1cb4ae18ffe2306480c502a98c52500388e8b96542598"
      },
      "_effectiveDateTime": {
        "extension": [ {
          "url": "http://hl7.org/fhir/StructureDefinition/data-absent-reason",
          "valueCode": "unknown"
        } ]
      },
      "valueCodeableConcept": {
        "coding": [ {
          "system": "http://loinc.org",
          "code": "LA18978-9"
        } ]
      }
    },
    "request": {
      "method": "POST",
      "url": "Observation",
      "ifNoneExist": "identifier=https://mein.krankenhaus.de/fhir/NamingSystem/observationId|3d47246b0deb89747775b8faef79fb333c309ee938f0b1a01609004d57063cbe"
    }
  }, {
    "fullUrl": "Observation/5110602551eb497de8f214ba1c2aadf893caaaa0605419f22bf52e45407ffd09",
    "resource": {
      "resourceType": "Observation",
      "meta": {
        "profile": [ "https://www.netzwerk-universitaetsmedizin.de/fhir/StructureDefinition/history-of-travel" ]
      },
      "identifier": [ {
        "type": {
          "coding": [ {
            "system": "http://terminology.hl7.org/CodeSystem/v2-0203",
            "code": "OBI",
            "display": "Observation Instance Identifier"
          } ]
        },
        "system": "https://mein.krankenhaus.de/fhir/NamingSystem/observationId",
        "value": "1b5ef50f8782fa7ce0cb98f332c626a6e1110cbb12b32cd73cb144d7216832c3",
        "assigner": {
          "reference": "Organization/3a4f3433bce81181bad2d8e0b8fafccf7dc800bc06f29be73dcb38b750a48f9a"
        }
      } ],
      "status": "final",
      "category": [ {
        "coding": [ {
          "system": "http://terminology.hl7.org/CodeSystem/observation-category",
          "code": "social-history",
          "display": "Social History"
        } ]
      } ],
      "code": {
        "coding": [ {
          "system": "http://loinc.org",
          "code": "8691-8"
        }, {
          "system": "http://snomed.info/sct",
          "code": "443846001"
        } ],
        "text": "History of Travel"
      },
      "subject": {
        "reference": "Patient/c48379323faf3a200ae9b56bcb1c2cc800089882f9227e65ddcb4ba61b258c2d"
      },
      "encounter": {
        "reference": "Encounter/184ddffacaca9034f9f1cb4ae18ffe2306480c502a98c52500388e8b96542598"
      },
      "_effectiveDateTime": {
        "extension": [ {
          "url": "http://hl7.org/fhir/StructureDefinition/data-absent-reason",
          "valueCode": "unknown"
        } ]
      },
      "valueCodeableConcept": {
        "coding": [ {
          "system": "http://snomed.info/sct",
          "code": "373066001"
        } ]
      },
      "component": [ {
        "code": {
          "coding": [ {
            "system": "http://loinc.org",
            "code": "82752-7",
            "display": "Date travel started"
          } ],
          "text": "Travel start date"
        },
        "valueDateTime": "2020-08-13"
      }, {
        "code": {
          "coding": [ {
            "system": "http://loinc.org",
            "code": "91560-3",
            "display": "Date of departure from travel destination"
          } ],
          "text": "Travel end date"
        },
        "valueDateTime": "2020-09-23"
      }, {
        "code": {
          "coding": [ {
            "system": "http://loinc.org",
            "code": "94651-7",
            "display": "Country of travel"
          } ],
          "text": "Country of travel"
        },
        "valueCodeableConcept": {
          "coding": [ {
            "system": "urn:iso:std:iso:3166",
            "code": "MS",
            "display": "Montserrat"
          } ],
          "text": "Montserrat"
        }
      } ]
    },
    "request": {
      "method": "POST",
      "url": "Observation",
      "ifNoneExist": "identifier=https://mein.krankenhaus.de/fhir/NamingSystem/observationId|5110602551eb497de8f214ba1c2aadf893caaaa0605419f22bf52e45407ffd09"
    }
  }, {
    "fullUrl": "Observation/702cf31df827773cec2fa4b9e6250729ba8065cfa0e00e8c5f77951042a6b4e2",
    "resource": {
      "resourceType": "Observation",
      "meta": {
        "profile": [ "https://www.netzwerk-universitaetsmedizin.de/fhir/StructureDefinition/history-of-travel" ]
      },
      "identifier": [ {
        "type": {
          "coding": [ {
            "system": "http://terminology.hl7.org/CodeSystem/v2-0203",
            "code": "OBI",
            "display": "Observation Instance Identifier"
          } ]
        },
        "system": "https://mein.krankenhaus.de/fhir/NamingSystem/observationId",
        "value": "6381c60218602b099bf0b2ddb645022a1141d357ced518dca889b9da862ed8ea",
        "assigner": {
          "reference": "Organization/3a4f3433bce81181bad2d8e0b8fafccf7dc800bc06f29be73dcb38b750a48f9a"
        }
      } ],
      "status": "final",
      "category": [ {
        "coding": [ {
          "system": "http://terminology.hl7.org/CodeSystem/observation-category",
          "code": "social-history",
          "display": "Social History"
        } ]
      } ],
      "code": {
        "coding": [ {
          "system": "http://loinc.org",
          "code": "8691-8"
        }, {
          "system": "http://snomed.info/sct",
          "code": "443846001"
        } ],
        "text": "History of Travel"
      },
      "subject": {
        "reference": "Patient/c48379323faf3a200ae9b56bcb1c2cc800089882f9227e65ddcb4ba61b258c2d"
      },
      "encounter": {
        "reference": "Encounter/184ddffacaca9034f9f1cb4ae18ffe2306480c502a98c52500388e8b96542598"
      },
      "_effectiveDateTime": {
        "extension": [ {
          "url": "http://hl7.org/fhir/StructureDefinition/data-absent-reason",
          "valueCode": "unknown"
        } ]
      },
      "valueCodeableConcept": {
        "coding": [ {
          "system": "http://snomed.info/sct",
          "code": "373066001"
        } ]
      },
      "component": [ {
        "code": {
          "coding": [ {
            "system": "http://loinc.org",
            "code": "82752-7",
            "display": "Date travel started"
          } ],
          "text": "Travel start date"
        },
        "valueDateTime": "2020-09-16"
      }, {
        "code": {
          "coding": [ {
            "system": "http://loinc.org",
            "code": "91560-3",
            "display": "Date of departure from travel destination"
          } ],
          "text": "Travel end date"
        },
        "valueDateTime": "2020-10-15"
      }, {
        "code": {
          "coding": [ {
            "system": "http://loinc.org",
            "code": "94651-7",
            "display": "Country of travel"
          } ],
          "text": "Country of travel"
        },
        "valueCodeableConcept": {
          "coding": [ {
            "system": "urn:iso:std:iso:3166",
            "code": "BA",
            "display": "Bosnia & Herzegovina"
          } ],
          "text": "Bosnia & Herzegovina"
        }
      } ]
    },
    "request": {
      "method": "POST",
      "url": "Observation",
      "ifNoneExist": "identifier=https://mein.krankenhaus.de/fhir/NamingSystem/observationId|702cf31df827773cec2fa4b9e6250729ba8065cfa0e00e8c5f77951042a6b4e2"
    }
  }, {
    "fullUrl": "Observation/76a63764f9691bad98e72737982890aac383423e3eead2b56d46abbdd84a0853",
    "resource": {
      "resourceType": "Observation",
      "meta": {
        "profile": [ "https://www.netzwerk-universitaetsmedizin.de/fhir/StructureDefinition/history-of-travel" ]
      },
      "identifier": [ {
        "type": {
          "coding": [ {
            "system": "http://terminology.hl7.org/CodeSystem/v2-0203",
            "code": "OBI",
            "display": "Observation Instance Identifier"
          } ]
        },
        "system": "https://mein.krankenhaus.de/fhir/NamingSystem/observationId",
        "value": "1be84e8117025404964f4e98d9bd559d476e641ea277b7ad1a2f7ed2031b6a6e",
        "assigner": {
          "reference": "Organization/3a4f3433bce81181bad2d8e0b8fafccf7dc800bc06f29be73dcb38b750a48f9a"
        }
      } ],
      "status": "final",
      "category": [ {
        "coding": [ {
          "system": "http://terminology.hl7.org/CodeSystem/observation-category",
          "code": "social-history",
          "display": "Social History"
        } ]
      } ],
      "code": {
        "coding": [ {
          "system": "http://loinc.org",
          "code": "8691-8"
        }, {
          "system": "http://snomed.info/sct",
          "code": "443846001"
        } ],
        "text": "History of Travel"
      },
      "subject": {
        "reference": "Patient/c48379323faf3a200ae9b56bcb1c2cc800089882f9227e65ddcb4ba61b258c2d"
      },
      "encounter": {
        "reference": "Encounter/184ddffacaca9034f9f1cb4ae18ffe2306480c502a98c52500388e8b96542598"
      },
      "_effectiveDateTime": {
        "extension": [ {
          "url": "http://hl7.org/fhir/StructureDefinition/data-absent-reason",
          "valueCode": "unknown"
        } ]
      },
      "valueCodeableConcept": {
        "coding": [ {
          "system": "http://snomed.info/sct",
          "code": "373066001"
        } ]
      },
      "component": [ {
        "code": {
          "coding": [ {
            "system": "http://loinc.org",
            "code": "82752-7",
            "display": "Date travel started"
          } ],
          "text": "Travel start date"
        },
        "valueDateTime": "2020-08-09"
      }, {
        "code": {
          "coding": [ {
            "system": "http://loinc.org",
            "code": "91560-3",
            "display": "Date of departure from travel destination"
          } ],
          "text": "Travel end date"
        },
        "valueDateTime": "2020-10-29"
      }, {
        "code": {
          "coding": [ {
            "system": "http://loinc.org",
            "code": "94651-7",
            "display": "Country of travel"
          } ],
          "text": "Country of travel"
        },
        "valueCodeableConcept": {
          "coding": [ {
            "system": "urn:iso:std:iso:3166",
            "code": "BQ",
            "display": "Caribbean Netherlands"
          } ],
          "text": "Caribbean Netherlands"
        }
      } ]
    },
    "request": {
      "method": "POST",
      "url": "Observation",
      "ifNoneExist": "identifier=https://mein.krankenhaus.de/fhir/NamingSystem/observationId|76a63764f9691bad98e72737982890aac383423e3eead2b56d46abbdd84a0853"
    }
  }, {
    "fullUrl": "Observation/60fb7b402cf04a8973115b0989373682ea15912b8ce7b619e307dd0fbc77169f",
    "resource": {
      "resourceType": "Observation",
      "meta": {
        "profile": [ "https://www.netzwerk-universitaetsmedizin.de/fhir/StructureDefinition/history-of-travel" ]
      },
      "identifier": [ {
        "type": {
          "coding": [ {
            "system": "http://terminology.hl7.org/CodeSystem/v2-0203",
            "code": "OBI",
            "display": "Observation Instance Identifier"
          } ]
        },
        "system": "https://mein.krankenhaus.de/fhir/NamingSystem/observationId",
        "value": "c9d9b661cc774d0a4b2ff16cd2a49af20a37d95d838a72e616131e6fb92472e5",
        "assigner": {
          "reference": "Organization/3a4f3433bce81181bad2d8e0b8fafccf7dc800bc06f29be73dcb38b750a48f9a"
        }
      } ],
      "status": "final",
      "category": [ {
        "coding": [ {
          "system": "http://terminology.hl7.org/CodeSystem/observation-category",
          "code": "social-history",
          "display": "Social History"
        } ]
      } ],
      "code": {
        "coding": [ {
          "system": "http://loinc.org",
          "code": "8691-8"
        }, {
          "system": "http://snomed.info/sct",
          "code": "443846001"
        } ],
        "text": "History of Travel"
      },
      "subject": {
        "reference": "Patient/c48379323faf3a200ae9b56bcb1c2cc800089882f9227e65ddcb4ba61b258c2d"
      },
      "encounter": {
        "reference": "Encounter/184ddffacaca9034f9f1cb4ae18ffe2306480c502a98c52500388e8b96542598"
      },
      "_effectiveDateTime": {
        "extension": [ {
          "url": "http://hl7.org/fhir/StructureDefinition/data-absent-reason",
          "valueCode": "unknown"
        } ]
      },
      "valueCodeableConcept": {
        "coding": [ {
          "system": "http://snomed.info/sct",
          "code": "373066001"
        } ]
      },
      "component": [ {
        "code": {
          "coding": [ {
            "system": "http://loinc.org",
            "code": "82752-7",
            "display": "Date travel started"
          } ],
          "text": "Travel start date"
        },
        "valueDateTime": "2020-03-31"
      }, {
        "code": {
          "coding": [ {
            "system": "http://loinc.org",
            "code": "91560-3",
            "display": "Date of departure from travel destination"
          } ],
          "text": "Travel end date"
        },
        "valueDateTime": "2020-04-04"
      }, {
        "code": {
          "coding": [ {
            "system": "http://loinc.org",
            "code": "94651-7",
            "display": "Country of travel"
          } ],
          "text": "Country of travel"
        },
        "valueCodeableConcept": {
          "coding": [ {
            "system": "urn:iso:std:iso:3166",
            "code": "ML",
            "display": "Mali"
          } ],
          "text": "Mali"
        }
      } ]
    },
    "request": {
      "method": "POST",
      "url": "Observation",
      "ifNoneExist": "identifier=https://mein.krankenhaus.de/fhir/NamingSystem/observationId|60fb7b402cf04a8973115b0989373682ea15912b8ce7b619e307dd0fbc77169f"
    }
  }, {
    "fullUrl": "Observation/8391e08a42630d707344e503cabf694e98fdc92e0c2f336fcb08ef85b6c6e836",
    "resource": {
      "resourceType": "Observation",
      "meta": {
        "profile": [ "https://www.netzwerk-universitaetsmedizin.de/fhir/StructureDefinition/history-of-travel" ]
      },
      "identifier": [ {
        "type": {
          "coding": [ {
            "system": "http://terminology.hl7.org/CodeSystem/v2-0203",
            "code": "OBI",
            "display": "Observation Instance Identifier"
          } ]
        },
        "system": "https://mein.krankenhaus.de/fhir/NamingSystem/observationId",
        "value": "017800c4b2a83bd430fd1e6498dc449994d3ce295c9dc94b2eb014d479245572",
        "assigner": {
          "reference": "Organization/3a4f3433bce81181bad2d8e0b8fafccf7dc800bc06f29be73dcb38b750a48f9a"
        }
      } ],
      "status": "final",
      "category": [ {
        "coding": [ {
          "system": "http://terminology.hl7.org/CodeSystem/observation-category",
          "code": "social-history",
          "display": "Social History"
        } ]
      } ],
      "code": {
        "coding": [ {
          "system": "http://loinc.org",
          "code": "8691-8"
        }, {
          "system": "http://snomed.info/sct",
          "code": "443846001"
        } ],
        "text": "History of Travel"
      },
      "subject": {
        "reference": "Patient/c48379323faf3a200ae9b56bcb1c2cc800089882f9227e65ddcb4ba61b258c2d"
      },
      "encounter": {
        "reference": "Encounter/184ddffacaca9034f9f1cb4ae18ffe2306480c502a98c52500388e8b96542598"
      },
      "_effectiveDateTime": {
        "extension": [ {
          "url": "http://hl7.org/fhir/StructureDefinition/data-absent-reason",
          "valueCode": "unknown"
        } ]
      },
      "valueCodeableConcept": {
        "coding": [ {
          "system": "http://snomed.info/sct",
          "code": "373066001"
        } ]
      },
      "component": [ {
        "code": {
          "coding": [ {
            "system": "http://loinc.org",
            "code": "82752-7",
            "display": "Date travel started"
          } ],
          "text": "Travel start date"
        },
        "valueDateTime": "2020-10-14"
      }, {
        "code": {
          "coding": [ {
            "system": "http://loinc.org",
            "code": "91560-3",
            "display": "Date of departure from travel destination"
          } ],
          "text": "Travel end date"
        },
        "valueDateTime": "2020-06-09"
      }, {
        "code": {
          "coding": [ {
            "system": "http://loinc.org",
            "code": "94651-7",
            "display": "Country of travel"
          } ],
          "text": "Country of travel"
        },
        "valueCodeableConcept": {
          "coding": [ {
            "system": "urn:iso:std:iso:3166",
            "code": "EC",
            "display": "Ecuador"
          } ],
          "text": "Ecuador"
        }
      } ]
    },
    "request": {
      "method": "POST",
      "url": "Observation",
      "ifNoneExist": "identifier=https://mein.krankenhaus.de/fhir/NamingSystem/observationId|8391e08a42630d707344e503cabf694e98fdc92e0c2f336fcb08ef85b6c6e836"
    }
  }, {
    "fullUrl": "Observation/8369db57b1e7ca8c676569a8b12d094a2818615c05cac6e52ad5fabc0d37e9c4",
    "resource": {
      "resourceType": "Observation",
      "meta": {
        "profile": [ "https://www.netzwerk-universitaetsmedizin.de/fhir/StructureDefinition/history-of-travel" ]
      },
      "identifier": [ {
        "type": {
          "coding": [ {
            "system": "http://terminology.hl7.org/CodeSystem/v2-0203",
            "code": "OBI",
            "display": "Observation Instance Identifier"
          } ]
        },
        "system": "https://mein.krankenhaus.de/fhir/NamingSystem/observationId",
        "value": "92bf28de84e482b3aed6d9496be849756c07d367a7e51792754f5227593675cf",
        "assigner": {
          "reference": "Organization/3a4f3433bce81181bad2d8e0b8fafccf7dc800bc06f29be73dcb38b750a48f9a"
        }
      } ],
      "status": "final",
      "category": [ {
        "coding": [ {
          "system": "http://terminology.hl7.org/CodeSystem/observation-category",
          "code": "social-history",
          "display": "Social History"
        } ]
      } ],
      "code": {
        "coding": [ {
          "system": "http://loinc.org",
          "code": "8691-8"
        }, {
          "system": "http://snomed.info/sct",
          "code": "443846001"
        } ],
        "text": "History of Travel"
      },
      "subject": {
        "reference": "Patient/c48379323faf3a200ae9b56bcb1c2cc800089882f9227e65ddcb4ba61b258c2d"
      },
      "encounter": {
        "reference": "Encounter/184ddffacaca9034f9f1cb4ae18ffe2306480c502a98c52500388e8b96542598"
      },
      "_effectiveDateTime": {
        "extension": [ {
          "url": "http://hl7.org/fhir/StructureDefinition/data-absent-reason",
          "valueCode": "unknown"
        } ]
      },
      "valueCodeableConcept": {
        "coding": [ {
          "system": "http://snomed.info/sct",
          "code": "373066001"
        } ]
      },
      "component": [ {
        "code": {
          "coding": [ {
            "system": "http://loinc.org",
            "code": "82752-7",
            "display": "Date travel started"
          } ],
          "text": "Travel start date"
        },
        "valueDateTime": "2020-10-09"
      }, {
        "code": {
          "coding": [ {
            "system": "http://loinc.org",
            "code": "91560-3",
            "display": "Date of departure from travel destination"
          } ],
          "text": "Travel end date"
        },
        "valueDateTime": "2020-05-07"
      }, {
        "code": {
          "coding": [ {
            "system": "http://loinc.org",
            "code": "94651-7",
            "display": "Country of travel"
          } ],
          "text": "Country of travel"
        },
        "valueCodeableConcept": {
          "coding": [ {
            "system": "urn:iso:std:iso:3166",
            "code": "RS",
            "display": "Serbia"
          } ],
          "text": "Serbia"
        }
      } ]
    },
    "request": {
      "method": "POST",
      "url": "Observation",
      "ifNoneExist": "identifier=https://mein.krankenhaus.de/fhir/NamingSystem/observationId|8369db57b1e7ca8c676569a8b12d094a2818615c05cac6e52ad5fabc0d37e9c4"
    }
  }, {
    "fullUrl": "Observation/82b2381336784e0683f1f28cc53e597b2703fb3cc9f83cfd4808fce986e0e780",
    "resource": {
      "resourceType": "Observation",
      "meta": {
        "profile": [ "https://www.netzwerk-universitaetsmedizin.de/fhir/StructureDefinition/history-of-travel" ]
      },
      "identifier": [ {
        "type": {
          "coding": [ {
            "system": "http://terminology.hl7.org/CodeSystem/v2-0203",
            "code": "OBI",
            "display": "Observation Instance Identifier"
          } ]
        },
        "system": "https://mein.krankenhaus.de/fhir/NamingSystem/observationId",
        "value": "dbdf7f96a45e62388323de4b70efb25b79d0eb7ce45dc3c521e365cd448adad8",
        "assigner": {
          "reference": "Organization/3a4f3433bce81181bad2d8e0b8fafccf7dc800bc06f29be73dcb38b750a48f9a"
        }
      } ],
      "status": "final",
      "category": [ {
        "coding": [ {
          "system": "http://terminology.hl7.org/CodeSystem/observation-category",
          "code": "social-history",
          "display": "Social History"
        } ]
      } ],
      "code": {
        "coding": [ {
          "system": "http://loinc.org",
          "code": "8691-8"
        }, {
          "system": "http://snomed.info/sct",
          "code": "443846001"
        } ],
        "text": "History of Travel"
      },
      "subject": {
        "reference": "Patient/c48379323faf3a200ae9b56bcb1c2cc800089882f9227e65ddcb4ba61b258c2d"
      },
      "encounter": {
        "reference": "Encounter/184ddffacaca9034f9f1cb4ae18ffe2306480c502a98c52500388e8b96542598"
      },
      "_effectiveDateTime": {
        "extension": [ {
          "url": "http://hl7.org/fhir/StructureDefinition/data-absent-reason",
          "valueCode": "unknown"
        } ]
      },
      "valueCodeableConcept": {
        "coding": [ {
          "system": "http://snomed.info/sct",
          "code": "373066001"
        } ]
      },
      "component": [ {
        "code": {
          "coding": [ {
            "system": "http://loinc.org",
            "code": "91560-3",
            "display": "Date of departure from travel destination"
          } ],
          "text": "Travel end date"
        },
        "valueDateTime": "2020-12-26"
      }, {
        "code": {
          "coding": [ {
            "system": "http://loinc.org",
            "code": "94651-7",
            "display": "Country of travel"
          } ],
          "text": "Country of travel"
        },
        "valueCodeableConcept": {
          "coding": [ {
            "system": "urn:iso:std:iso:3166",
            "code": "GB",
            "display": "United Kingdom"
          } ],
          "text": "United Kingdom"
        }
      } ]
    },
    "request": {
      "method": "POST",
      "url": "Observation",
      "ifNoneExist": "identifier=https://mein.krankenhaus.de/fhir/NamingSystem/observationId|82b2381336784e0683f1f28cc53e597b2703fb3cc9f83cfd4808fce986e0e780"
    }
  }, {
    "fullUrl": "Observation/6eefbdd5084a961c014d16c099113e60a1b02561c366ace240de7daf36f61c65",
    "resource": {
      "resourceType": "Observation",
      "meta": {
        "profile": [ "https://www.netzwerk-universitaetsmedizin.de/fhir/StructureDefinition/history-of-travel" ]
      },
      "identifier": [ {
        "type": {
          "coding": [ {
            "system": "http://terminology.hl7.org/CodeSystem/v2-0203",
            "code": "OBI",
            "display": "Observation Instance Identifier"
          } ]
        },
        "system": "https://mein.krankenhaus.de/fhir/NamingSystem/observationId",
        "value": "1ecab1bcbeeaa0516513017a8e1ecb73ec054e91620c1798bb8ac906148442ff",
        "assigner": {
          "reference": "Organization/3a4f3433bce81181bad2d8e0b8fafccf7dc800bc06f29be73dcb38b750a48f9a"
        }
      } ],
      "status": "final",
      "category": [ {
        "coding": [ {
          "system": "http://terminology.hl7.org/CodeSystem/observation-category",
          "code": "social-history",
          "display": "Social History"
        } ]
      } ],
      "code": {
        "coding": [ {
          "system": "http://loinc.org",
          "code": "8691-8"
        }, {
          "system": "http://snomed.info/sct",
          "code": "443846001"
        } ],
        "text": "History of Travel"
      },
      "subject": {
        "reference": "Patient/c48379323faf3a200ae9b56bcb1c2cc800089882f9227e65ddcb4ba61b258c2d"
      },
      "encounter": {
        "reference": "Encounter/184ddffacaca9034f9f1cb4ae18ffe2306480c502a98c52500388e8b96542598"
      },
      "_effectiveDateTime": {
        "extension": [ {
          "url": "http://hl7.org/fhir/StructureDefinition/data-absent-reason",
          "valueCode": "unknown"
        } ]
      },
      "valueCodeableConcept": {
        "coding": [ {
          "system": "http://snomed.info/sct",
          "code": "373066001"
        } ]
      },
      "component": [ {
        "code": {
          "coding": [ {
            "system": "http://loinc.org",
            "code": "82752-7",
            "display": "Date travel started"
          } ],
          "text": "Travel start date"
        },
        "valueDateTime": "2020-09-23"
      }, {
        "code": {
          "coding": [ {
            "system": "http://loinc.org",
            "code": "91560-3",
            "display": "Date of departure from travel destination"
          } ],
          "text": "Travel end date"
        },
        "valueDateTime": "2020-07-04"
      }, {
        "code": {
          "coding": [ {
            "system": "http://loinc.org",
            "code": "94651-7",
            "display": "Country of travel"
          } ],
          "text": "Country of travel"
        },
        "valueCodeableConcept": {
          "coding": [ {
            "system": "urn:iso:std:iso:3166",
            "code": "CC",
            "display": "Cocos (Keeling) Islands"
          } ],
          "text": "Cocos (Keeling) Islands"
        }
      } ]
    },
    "request": {
      "method": "POST",
      "url": "Observation",
      "ifNoneExist": "identifier=https://mein.krankenhaus.de/fhir/NamingSystem/observationId|6eefbdd5084a961c014d16c099113e60a1b02561c366ace240de7daf36f61c65"
    }
  }, {
    "fullUrl": "Observation/a08caeb733b634ce808a8acbeb0b8ff22c730f8bb7eca21f5dde5ea52cc240d5",
    "resource": {
      "resourceType": "Observation",
      "meta": {
        "profile": [ "https://www.netzwerk-universitaetsmedizin.de/fhir/StructureDefinition/history-of-travel" ]
      },
      "identifier": [ {
        "type": {
          "coding": [ {
            "system": "http://terminology.hl7.org/CodeSystem/v2-0203",
            "code": "OBI",
            "display": "Observation Instance Identifier"
          } ]
        },
        "system": "https://mein.krankenhaus.de/fhir/NamingSystem/observationId",
        "value": "f8f3bf4f73b6563fa6b3335d23d6f934290772d78952447d2b7dc9220fc98633",
        "assigner": {
          "reference": "Organization/3a4f3433bce81181bad2d8e0b8fafccf7dc800bc06f29be73dcb38b750a48f9a"
        }
      } ],
      "status": "final",
      "category": [ {
        "coding": [ {
          "system": "http://terminology.hl7.org/CodeSystem/observation-category",
          "code": "social-history",
          "display": "Social History"
        } ]
      } ],
      "code": {
        "coding": [ {
          "system": "http://loinc.org",
          "code": "8691-8"
        }, {
          "system": "http://snomed.info/sct",
          "code": "443846001"
        } ],
        "text": "History of Travel"
      },
      "subject": {
        "reference": "Patient/c48379323faf3a200ae9b56bcb1c2cc800089882f9227e65ddcb4ba61b258c2d"
      },
      "encounter": {
        "reference": "Encounter/184ddffacaca9034f9f1cb4ae18ffe2306480c502a98c52500388e8b96542598"
      },
      "_effectiveDateTime": {
        "extension": [ {
          "url": "http://hl7.org/fhir/StructureDefinition/data-absent-reason",
          "valueCode": "unknown"
        } ]
      },
      "valueCodeableConcept": {
        "coding": [ {
          "system": "http://snomed.info/sct",
          "code": "373066001"
        } ]
      },
      "component": [ {
        "code": {
          "coding": [ {
            "system": "http://loinc.org",
            "code": "82752-7",
            "display": "Date travel started"
          } ],
          "text": "Travel start date"
        },
        "valueDateTime": "2020-12-01"
      }, {
        "code": {
          "coding": [ {
            "system": "http://loinc.org",
            "code": "91560-3",
            "display": "Date of departure from travel destination"
          } ],
          "text": "Travel end date"
        },
        "valueDateTime": "2020-07-29"
      }, {
        "code": {
          "coding": [ {
            "system": "http://loinc.org",
            "code": "94651-7",
            "display": "Country of travel"
          } ],
          "text": "Country of travel"
        },
        "valueCodeableConcept": {
          "coding": [ {
            "system": "urn:iso:std:iso:3166",
            "code": "TC",
            "display": "Turks & Caicos Islands"
          } ],
          "text": "Turks & Caicos Islands"
        }
      } ]
    },
    "request": {
      "method": "POST",
      "url": "Observation",
      "ifNoneExist": "identifier=https://mein.krankenhaus.de/fhir/NamingSystem/observationId|a08caeb733b634ce808a8acbeb0b8ff22c730f8bb7eca21f5dde5ea52cc240d5"
    }
  }, {
    "fullUrl": "Observation/b9fc52e6e2733617af59f3c1c5b083c777d2d7f685f84747d7561bd6d70a007f",
    "resource": {
      "resourceType": "Observation",
      "meta": {
        "profile": [ "https://www.netzwerk-universitaetsmedizin.de/fhir/StructureDefinition/history-of-travel" ]
      },
      "identifier": [ {
        "type": {
          "coding": [ {
            "system": "http://terminology.hl7.org/CodeSystem/v2-0203",
            "code": "OBI",
            "display": "Observation Instance Identifier"
          } ]
        },
        "system": "https://mein.krankenhaus.de/fhir/NamingSystem/observationId",
        "value": "744dec56727a8a10f6dc2c2ced601ab205b43ef4bc241119e922a28fb2882f65",
        "assigner": {
          "reference": "Organization/3a4f3433bce81181bad2d8e0b8fafccf7dc800bc06f29be73dcb38b750a48f9a"
        }
      } ],
      "status": "final",
      "category": [ {
        "coding": [ {
          "system": "http://terminology.hl7.org/CodeSystem/observation-category",
          "code": "social-history",
          "display": "Social History"
        } ]
      } ],
      "code": {
        "coding": [ {
          "system": "http://loinc.org",
          "code": "8691-8"
        }, {
          "system": "http://snomed.info/sct",
          "code": "443846001"
        } ],
        "text": "History of Travel"
      },
      "subject": {
        "reference": "Patient/c48379323faf3a200ae9b56bcb1c2cc800089882f9227e65ddcb4ba61b258c2d"
      },
      "encounter": {
        "reference": "Encounter/184ddffacaca9034f9f1cb4ae18ffe2306480c502a98c52500388e8b96542598"
      },
      "_effectiveDateTime": {
        "extension": [ {
          "url": "http://hl7.org/fhir/StructureDefinition/data-absent-reason",
          "valueCode": "unknown"
        } ]
      },
      "valueCodeableConcept": {
        "coding": [ {
          "system": "http://snomed.info/sct",
          "code": "373066001"
        } ]
      },
      "component": [ {
        "code": {
          "coding": [ {
            "system": "http://loinc.org",
            "code": "82752-7",
            "display": "Date travel started"
          } ],
          "text": "Travel start date"
        },
        "valueDateTime": "2020-08-04"
      }, {
        "code": {
          "coding": [ {
            "system": "http://loinc.org",
            "code": "91560-3",
            "display": "Date of departure from travel destination"
          } ],
          "text": "Travel end date"
        },
        "valueDateTime": "2020-10-09"
      }, {
        "code": {
          "coding": [ {
            "system": "http://loinc.org",
            "code": "94651-7",
            "display": "Country of travel"
          } ],
          "text": "Country of travel"
        },
        "valueCodeableConcept": {
          "coding": [ {
            "system": "urn:iso:std:iso:3166",
            "code": "PW",
            "display": "Palau"
          } ],
          "text": "Palau"
        }
      } ]
    },
    "request": {
      "method": "POST",
      "url": "Observation",
      "ifNoneExist": "identifier=https://mein.krankenhaus.de/fhir/NamingSystem/observationId|b9fc52e6e2733617af59f3c1c5b083c777d2d7f685f84747d7561bd6d70a007f"
    }
  }, {
    "fullUrl": "Procedure/85e2c1dbb4e1fdc432ea8c37c9a7dbd678758ed86905a33e7a5e579f1a2ed43e",
    "resource": {
      "resourceType": "Procedure",
      "meta": {
        "profile": [ "https://www.netzwerk-universitaetsmedizin.de/fhir/StructureDefinition/respiratory-therapies" ]
      },
      "identifier": [ {
        "system": "https://mein.krankenhaus.de/fhir/NamingSystem/procedureId",
        "value": "ac8c453fb2780b95ce8d91699897eb4f99e1cab6a3dd658a58f7a95cbabb9030"
      } ],
      "status": "in-progress",
      "category": {
        "coding": [ {
          "system": "http://snomed.info/sct",
          "code": "277132007",
          "display": "Therapeutic procedure (procedure)"
        } ]
      },
      "code": {
        "coding": [ {
          "system": "http://snomed.info/sct",
          "code": "53950000"
        } ]
      },
      "subject": {
        "reference": "Patient/c48379323faf3a200ae9b56bcb1c2cc800089882f9227e65ddcb4ba61b258c2d"
      },
      "encounter": {
        "reference": "Encounter/184ddffacaca9034f9f1cb4ae18ffe2306480c502a98c52500388e8b96542598"
      },
      "_performedDateTime": {
        "extension": [ {
          "url": "http://hl7.org/fhir/StructureDefinition/data-absent-reason",
          "valueCode": "unknown"
        } ]
      }
    },
    "request": {
      "method": "POST",
      "url": "Procedure",
      "ifNoneExist": "identifier=https://mein.krankenhaus.de/fhir/NamingSystem/procedureId|85e2c1dbb4e1fdc432ea8c37c9a7dbd678758ed86905a33e7a5e579f1a2ed43e"
    }
  }, {
    "fullUrl": "Immunization/258376081afa3a2759df6c37b9a406b1c680013dd3747889ee0b71eeea6af3dc",
    "resource": {
      "resourceType": "Immunization",
      "meta": {
        "profile": [ "https://www.netzwerk-universitaetsmedizin.de/fhir/StructureDefinition/immunization" ]
      },
      "identifier": [ {
        "system": "https://mein.krankenhaus.de/fhir/NamingSystem/immunizationId",
        "value": "672fb905b5eeca0f8da368198be5f69b5c99405c8b6c1fe354830292fa223158"
      } ],
      "status": "completed",
      "vaccineCode": {
        "coding": [ {
          "system": "http://snomed.info/sct",
          "code": "836377006"
        } ]
      },
      "patient": {
        "reference": "Patient/c48379323faf3a200ae9b56bcb1c2cc800089882f9227e65ddcb4ba61b258c2d"
      },
      "encounter": {
        "reference": "Encounter/184ddffacaca9034f9f1cb4ae18ffe2306480c502a98c52500388e8b96542598"
      },
      "occurrenceDateTime": "2020-12-30",
      "protocolApplied": [ {
        "targetDisease": [ {
          "coding": [ {
            "system": "http://snomed.info/sct",
            "code": "6142004"
          } ]
        } ],
        "_doseNumberString": {
          "extension": [ {
            "url": "http://hl7.org/fhir/StructureDefinition/data-absent-reason",
            "valueCode": "unknown"
          } ]
        }
      } ]
    },
    "request": {
      "method": "POST",
      "url": "Immunization",
      "ifNoneExist": "identifier=https://mein.krankenhaus.de/fhir/NamingSystem/immunizationId|258376081afa3a2759df6c37b9a406b1c680013dd3747889ee0b71eeea6af3dc"
    }
  }, {
    "fullUrl": "Immunization/d1f574b71ad3b69051d2e3c6a00707d0c92d3e9f5190636bb88728a6beaf8c05",
    "resource": {
      "resourceType": "Immunization",
      "meta": {
        "profile": [ "https://www.netzwerk-universitaetsmedizin.de/fhir/StructureDefinition/immunization" ]
      },
      "identifier": [ {
        "system": "https://mein.krankenhaus.de/fhir/NamingSystem/immunizationId",
        "value": "520bca9de7c280d22b24217ae6699c40fd3f3b9385700159620a3a49c6e1caaf"
      } ],
      "status": "not-done",
      "vaccineCode": {
        "coding": [ {
          "system": "http://snomed.info/sct",
          "code": "836402002"
        } ]
      },
      "patient": {
        "reference": "Patient/c48379323faf3a200ae9b56bcb1c2cc800089882f9227e65ddcb4ba61b258c2d"
      },
      "encounter": {
        "reference": "Encounter/184ddffacaca9034f9f1cb4ae18ffe2306480c502a98c52500388e8b96542598"
      },
      "_occurrenceDateTime": {
        "extension": [ {
          "url": "http://hl7.org/fhir/StructureDefinition/data-absent-reason",
          "valueCode": "unknown"
        } ]
      },
      "protocolApplied": [ {
        "targetDisease": [ {
          "coding": [ {
            "system": "http://snomed.info/sct",
            "code": "56717001"
          } ]
        } ],
        "_doseNumberString": {
          "extension": [ {
            "url": "http://hl7.org/fhir/StructureDefinition/data-absent-reason",
            "valueCode": "unknown"
          } ]
        }
      } ]
    },
    "request": {
      "method": "POST",
      "url": "Immunization",
      "ifNoneExist": "identifier=https://mein.krankenhaus.de/fhir/NamingSystem/immunizationId|d1f574b71ad3b69051d2e3c6a00707d0c92d3e9f5190636bb88728a6beaf8c05"
    }
  }, {
    "fullUrl": "Immunization/a2e7ef86eb4df63c9b3fe38c49ba8190c09f4f6550d168c8d7c6a74377c48845",
    "resource": {
      "resourceType": "Immunization",
      "meta": {
        "profile": [ "https://www.netzwerk-universitaetsmedizin.de/fhir/StructureDefinition/immunization" ]
      },
      "identifier": [ {
        "system": "https://mein.krankenhaus.de/fhir/NamingSystem/immunizationId",
        "value": "2fd4413ed0ce0659249b4880035f3e528ecd2fffe51824c7f6250a7d055d0f40"
      } ],
      "status": "not-done",
      "vaccineCode": {
        "coding": [ {
          "system": "http://hl7.org/fhir/uv/ips/CodeSystem/absent-unknown-uv-ips",
          "code": "no-known-immunizations",
          "display": "vaccineCode unknown"
        } ]
      },
      "patient": {
        "reference": "Patient/c48379323faf3a200ae9b56bcb1c2cc800089882f9227e65ddcb4ba61b258c2d"
      },
      "encounter": {
        "reference": "Encounter/184ddffacaca9034f9f1cb4ae18ffe2306480c502a98c52500388e8b96542598"
      },
      "_occurrenceDateTime": {
        "extension": [ {
          "url": "http://hl7.org/fhir/StructureDefinition/data-absent-reason",
          "valueCode": "unknown"
        } ]
      },
      "protocolApplied": [ {
        "targetDisease": [ {
          "coding": [ {
            "system": "http://snomed.info/sct",
            "code": "64572001",
            "display": "targetDisease unknown"
          } ]
        } ],
        "_doseNumberString": {
          "extension": [ {
            "url": "http://hl7.org/fhir/StructureDefinition/data-absent-reason",
            "valueCode": "unknown"
          } ]
        }
      } ]
    },
    "request": {
      "method": "POST",
      "url": "Immunization",
      "ifNoneExist": "identifier=https://mein.krankenhaus.de/fhir/NamingSystem/immunizationId|a2e7ef86eb4df63c9b3fe38c49ba8190c09f4f6550d168c8d7c6a74377c48845"
    }
  }, {
    "fullUrl": "Consent/1574427c56b50e0576c15e5686f61db553a07f37c00e070ba57f702746277ae6",
    "resource": {
      "resourceType": "Consent",
      "meta": {
        "profile": [ "https://www.netzwerk-universitaetsmedizin.de/fhir/StructureDefinition/do-not-resuscitate-order" ]
      },
      "identifier": [ {
        "system": "https://mein.krankenhaus.de/fhir/NamingSystem/consentId",
        "value": "b4bac79eb9c6259ecbba383597dcaa1bca6e9ab6832bbe7ad42e829bab6008e5"
      } ],
      "status": "active",
      "scope": {
        "coding": [ {
          "system": "http://terminology.hl7.org/CodeSystem/consentscope",
          "code": "adr",
          "display": "Advanced Care Directive"
        } ]
      },
      "category": [ {
        "coding": [ {
          "system": "http://terminology.hl7.org/CodeSystem/consentcategorycodes",
          "code": "dnr",
          "display": "Do Not Resuscitate"
        } ]
      } ],
      "patient": {
        "reference": "Patient/c48379323faf3a200ae9b56bcb1c2cc800089882f9227e65ddcb4ba61b258c2d"
      },
      "policy": [ {
        "uri": "https://www.aerzteblatt.de/archiv/65440/DNR-Anordnungen-Das-fehlende-Bindeglied"
      } ],
      "provision": {
        "code": [ {
          "coding": [ {
            "system": "http://snomed.info/sct",
            "code": "304252001"
          } ]
        } ]
      }
    },
    "request": {
      "method": "POST",
      "url": "Consent",
      "ifNoneExist": "identifier=https://mein.krankenhaus.de/fhir/NamingSystem/consentId|1574427c56b50e0576c15e5686f61db553a07f37c00e070ba57f702746277ae6"
    }
  }, {
    "fullUrl": "Observation/e517d1a72bc17cdc3f9a65589fdff4fe6a680991579880f1c5245802639b4b74",
    "resource": {
      "resourceType": "Observation",
      "meta": {
        "profile": [ "https://www.netzwerk-universitaetsmedizin.de/fhir/StructureDefinition/sex-assigned-at-birth" ]
      },
      "identifier": [ {
        "system": "https://mein.krankenhaus.de/fhir/NamingSystem/observationId",
        "value": "a5eefd7c17818565d9b96a7d88bf6b357769b32a1b044a0ba21e33b8cf0cea09"
      } ],
      "status": "final",
      "category": [ {
        "coding": [ {
          "system": "http://terminology.hl7.org/CodeSystem/observation-category",
          "code": "social-history",
          "display": "Social History"
        } ]
      } ],
      "code": {
        "coding": [ {
          "system": "http://loinc.org",
          "code": "76689-9"
        } ]
      },
      "subject": {
        "reference": "Patient/c48379323faf3a200ae9b56bcb1c2cc800089882f9227e65ddcb4ba61b258c2d"
      },
      "encounter": {
        "reference": "Encounter/184ddffacaca9034f9f1cb4ae18ffe2306480c502a98c52500388e8b96542598"
      },
      "_effectiveDateTime": {
        "extension": [ {
          "url": "http://hl7.org/fhir/StructureDefinition/data-absent-reason",
          "valueCode": "unknown"
        } ]
      },
      "valueCodeableConcept": {
        "coding": [ {
          "system": "http://hl7.org/fhir/administrative-gender",
          "code": "male"
        } ]
      }
    },
    "request": {
      "method": "POST",
      "url": "Observation",
      "ifNoneExist": "identifier=https://mein.krankenhaus.de/fhir/NamingSystem/observationId|e517d1a72bc17cdc3f9a65589fdff4fe6a680991579880f1c5245802639b4b74"
    }
  }, {
    "fullUrl": "Observation/5d6bcd37c6fe650d3197e1bb6a17240444d2535cb5dd878cd1f1bdd84ddfee1d",
    "resource": {
      "resourceType": "Observation",
      "meta": {
        "profile": [ "https://www.netzwerk-universitaetsmedizin.de/fhir/StructureDefinition/frailty-score" ]
      },
      "identifier": [ {
        "type": {
          "coding": [ {
            "system": "http://terminology.hl7.org/CodeSystem/v2-0203",
            "code": "OBI",
            "display": "Observation Instance Identifier"
          } ]
        },
        "system": "https://mein.krankenhaus.de/fhir/NamingSystem/observationId",
        "value": "485f5cbfeb2fe52150dc163647341b07b7dac267941bbb7069db2e9f3b9e3177",
        "assigner": {
          "reference": "Organization/3a4f3433bce81181bad2d8e0b8fafccf7dc800bc06f29be73dcb38b750a48f9a"
        }
      } ],
      "status": "final",
      "category": [ {
        "coding": [ {
          "system": "http://terminology.hl7.org/CodeSystem/observation-category",
          "code": "survey",
          "display": "Survey"
        } ]
      } ],
      "code": {
        "coding": [ {
          "system": "http://snomed.info/sct",
          "code": "763264000"
        } ],
        "text": "Frailty Scale Score"
      },
      "subject": {
        "reference": "Patient/c48379323faf3a200ae9b56bcb1c2cc800089882f9227e65ddcb4ba61b258c2d"
      },
      "encounter": {
        "reference": "Encounter/184ddffacaca9034f9f1cb4ae18ffe2306480c502a98c52500388e8b96542598"
      },
      "_effectiveDateTime": {
        "extension": [ {
          "url": "http://hl7.org/fhir/StructureDefinition/data-absent-reason",
          "valueCode": "unknown"
        } ]
      },
      "valueCodeableConcept": {
        "coding": [ {
          "system": "https://www.netzwerk-universitaetsmedizin.de/fhir/CodeSystem/frailty-score",
          "code": "6"
        } ]
      },
      "method": {
        "coding": [ {
          "system": "http://snomed.info/sct",
          "code": "445414007",
          "display": "Canadian Study of Health and Aging clinical frailty scale"
        } ]
      }
    },
    "request": {
      "method": "POST",
      "url": "Observation",
      "ifNoneExist": "identifier=https://mein.krankenhaus.de/fhir/NamingSystem/observationId|5d6bcd37c6fe650d3197e1bb6a17240444d2535cb5dd878cd1f1bdd84ddfee1d"
    }
  }, {
    "fullUrl": "Observation/224227ca4d75889c13f9883663b3ff36ca0b5105293c4e986df8680ba4f94750",
    "resource": {
      "resourceType": "Observation",
      "meta": {
        "profile": [ "https://www.netzwerk-universitaetsmedizin.de/fhir/StructureDefinition/body-weight" ]
      },
      "identifier": [ {
        "type": {
          "coding": [ {
            "system": "http://terminology.hl7.org/CodeSystem/v2-0203",
            "code": "OBI",
            "display": "Observation Instance Identifier"
          } ]
        },
        "system": "https://mein.krankenhaus.de/fhir/NamingSystem/observationId",
        "value": "a2b8542678f66ec30cfb556c07fe544c51a2e069e1e1a3775e1f16c105f9dffc",
        "assigner": {
          "reference": "Organization/3a4f3433bce81181bad2d8e0b8fafccf7dc800bc06f29be73dcb38b750a48f9a"
        }
      } ],
      "status": "final",
      "category": [ {
        "coding": [ {
          "system": "http://terminology.hl7.org/CodeSystem/observation-category",
          "code": "vital-signs",
          "display": "Vital Signs"
        } ]
      } ],
      "code": {
        "coding": [ {
          "system": "http://loinc.org",
          "code": "29463-7"
        }, {
          "system": "http://snomed.info/sct",
          "code": "27113001"
        } ],
        "text": "Body Weight"
      },
      "subject": {
        "reference": "Patient/c48379323faf3a200ae9b56bcb1c2cc800089882f9227e65ddcb4ba61b258c2d"
      },
      "encounter": {
        "reference": "Encounter/184ddffacaca9034f9f1cb4ae18ffe2306480c502a98c52500388e8b96542598"
      },
      "_effectiveDateTime": {
        "extension": [ {
          "url": "http://hl7.org/fhir/StructureDefinition/data-absent-reason",
          "valueCode": "unknown"
        } ]
      },
      "valueQuantity": {
        "value": 22,
        "unit": "kilogram",
        "system": "http://unitsofmeasure.org",
        "code": "kg"
      }
    },
    "request": {
      "method": "POST",
      "url": "Observation",
      "ifNoneExist": "identifier=https://mein.krankenhaus.de/fhir/NamingSystem/observationId|224227ca4d75889c13f9883663b3ff36ca0b5105293c4e986df8680ba4f94750"
    }
  }, {
    "fullUrl": "Observation/c35f5bb77f204d0becfd38285783d41ca865a8db514ae151e41fba4522590e69",
    "resource": {
      "resourceType": "Observation",
      "meta": {
        "profile": [ "https://www.netzwerk-universitaetsmedizin.de/fhir/StructureDefinition/body-height" ]
      },
      "identifier": [ {
        "type": {
          "coding": [ {
            "system": "http://terminology.hl7.org/CodeSystem/v2-0203",
            "code": "OBI",
            "display": "Observation Instance Identifier"
          } ]
        },
        "system": "https://mein.krankenhaus.de/fhir/NamingSystem/observationId",
        "value": "35881def1b9fcd4c8b9dc47561197cccbef8eaa0a83c93398dd699c182f8515b",
        "assigner": {
          "reference": "Organization/3a4f3433bce81181bad2d8e0b8fafccf7dc800bc06f29be73dcb38b750a48f9a"
        }
      } ],
      "status": "final",
      "category": [ {
        "coding": [ {
          "system": "http://terminology.hl7.org/CodeSystem/observation-category",
          "code": "vital-signs",
          "display": "Vital Signs"
        } ]
      } ],
      "code": {
        "coding": [ {
          "system": "http://loinc.org",
          "code": "8302-2"
        }, {
          "system": "http://snomed.info/sct",
          "code": "50373000"
        } ],
        "text": "Body height"
      },
      "subject": {
        "reference": "Patient/c48379323faf3a200ae9b56bcb1c2cc800089882f9227e65ddcb4ba61b258c2d"
      },
      "encounter": {
        "reference": "Encounter/184ddffacaca9034f9f1cb4ae18ffe2306480c502a98c52500388e8b96542598"
      },
      "_effectiveDateTime": {
        "extension": [ {
          "url": "http://hl7.org/fhir/StructureDefinition/data-absent-reason",
          "valueCode": "unknown"
        } ]
      },
      "valueQuantity": {
        "value": 154,
        "unit": "centimeter",
        "system": "http://unitsofmeasure.org",
        "code": "cm"
      }
    },
    "request": {
      "method": "POST",
      "url": "Observation",
      "ifNoneExist": "identifier=https://mein.krankenhaus.de/fhir/NamingSystem/observationId|c35f5bb77f204d0becfd38285783d41ca865a8db514ae151e41fba4522590e69"
    }
  }, {
    "fullUrl": "Observation/141277390f3f293d2fc4dd90a9e8034dfd6b0d6192fb6168e97cea3f17537fec",
    "resource": {
      "resourceType": "Observation",
      "meta": {
        "profile": [ "https://www.netzwerk-universitaetsmedizin.de/fhir/StructureDefinition/known-exposure" ]
      },
      "identifier": [ {
        "type": {
          "coding": [ {
            "system": "http://terminology.hl7.org/CodeSystem/v2-0203",
            "code": "OBI",
            "display": "Observation Instance Identifier"
          } ]
        },
        "system": "https://mein.krankenhaus.de/fhir/NamingSystem/observationId",
        "value": "f32de0258ef17104762a08d8cadc154add859ec4e087accf05bdcddeb653a3a3",
        "assigner": {
          "reference": "Organization/3a4f3433bce81181bad2d8e0b8fafccf7dc800bc06f29be73dcb38b750a48f9a"
        }
      } ],
      "status": "final",
      "category": [ {
        "coding": [ {
          "system": "http://terminology.hl7.org/CodeSystem/observation-category",
          "code": "social-history",
          "display": "Social History"
        } ]
      } ],
      "code": {
        "coding": [ {
          "system": "http://loinc.org",
          "code": "88636-6"
        } ],
        "text": "Known exposure"
      },
      "subject": {
        "reference": "Patient/c48379323faf3a200ae9b56bcb1c2cc800089882f9227e65ddcb4ba61b258c2d"
      },
      "encounter": {
        "reference": "Encounter/184ddffacaca9034f9f1cb4ae18ffe2306480c502a98c52500388e8b96542598"
      },
      "_effectiveDateTime": {
        "extension": [ {
          "url": "http://hl7.org/fhir/StructureDefinition/data-absent-reason",
          "valueCode": "unknown"
        } ]
      },
      "dataAbsentReason": {
        "coding": [ {
          "system": "http://terminology.hl7.org/CodeSystem/data-absent-reason",
          "code": "unknown",
          "display": "Unknown"
        } ]
      }
    },
    "request": {
      "method": "POST",
      "url": "Observation",
      "ifNoneExist": "identifier=https://mein.krankenhaus.de/fhir/NamingSystem/observationId|141277390f3f293d2fc4dd90a9e8034dfd6b0d6192fb6168e97cea3f17537fec"
    }
  }, {
    "fullUrl": "Procedure/3e24d42b6d58d8b0235924f92f7004c9d82781ec16e18907b4e320419f850177",
    "resource": {
      "resourceType": "Procedure",
      "meta": {
        "profile": [ "https://www.netzwerk-universitaetsmedizin.de/fhir/StructureDefinition/apheresis" ]
      },
      "identifier": [ {
        "system": "https://mein.krankenhaus.de/fhir/NamingSystem/procedureId",
        "value": "67ef13b940b8ab80c95f2c3d45f0fa8ab9eacd58b586957334c5a5a99b7c4971"
      } ],
      "status": "not-done",
      "category": {
        "coding": [ {
          "system": "http://snomed.info/sct",
          "code": "277132007",
          "display": "Therapeutic procedure (procedure)"
        } ]
      },
      "code": {
        "coding": [ {
          "system": "http://snomed.info/sct",
          "code": "127788007"
        } ],
        "text": "Apheresis"
      },
      "subject": {
        "reference": "Patient/c48379323faf3a200ae9b56bcb1c2cc800089882f9227e65ddcb4ba61b258c2d"
      },
      "encounter": {
        "reference": "Encounter/184ddffacaca9034f9f1cb4ae18ffe2306480c502a98c52500388e8b96542598"
      },
      "_performedDateTime": {
        "extension": [ {
          "url": "http://hl7.org/fhir/StructureDefinition/data-absent-reason",
          "valueCode": "not-performed"
        } ]
      }
    },
    "request": {
      "method": "POST",
      "url": "Procedure",
      "ifNoneExist": "identifier=https://mein.krankenhaus.de/fhir/NamingSystem/procedureId|3e24d42b6d58d8b0235924f92f7004c9d82781ec16e18907b4e320419f850177"
    }
  }, {
    "fullUrl": "Procedure/c42721e469e5266f0bd8d54474acf9d611e95ea9da39fc919172c03814b7a5d7",
    "resource": {
      "resourceType": "Procedure",
      "meta": {
        "profile": [ "https://www.netzwerk-universitaetsmedizin.de/fhir/StructureDefinition/prone-position" ]
      },
      "identifier": [ {
        "system": "https://mein.krankenhaus.de/fhir/NamingSystem/procedureId",
        "value": "661ae1d26c6d8be55114624eb16c9935476e97dae3eb85c71be5fcbe594ee5ed"
      } ],
      "status": "not-done",
      "category": {
        "coding": [ {
          "system": "http://snomed.info/sct",
          "code": "225287004",
          "display": "Procedures relating to positioning and support (procedure)"
        } ]
      },
      "code": {
        "coding": [ {
          "system": "http://snomed.info/sct",
          "code": "431182000"
        } ],
        "text": "Prone position"
      },
      "subject": {
        "reference": "Patient/c48379323faf3a200ae9b56bcb1c2cc800089882f9227e65ddcb4ba61b258c2d"
      },
      "encounter": {
        "reference": "Encounter/184ddffacaca9034f9f1cb4ae18ffe2306480c502a98c52500388e8b96542598"
      },
      "_performedDateTime": {
        "extension": [ {
          "url": "http://hl7.org/fhir/StructureDefinition/data-absent-reason",
          "valueCode": "not-performed"
        } ]
      }
    },
    "request": {
      "method": "POST",
      "url": "Procedure",
      "ifNoneExist": "identifier=https://mein.krankenhaus.de/fhir/NamingSystem/procedureId|c42721e469e5266f0bd8d54474acf9d611e95ea9da39fc919172c03814b7a5d7"
    }
  }, {
    "fullUrl": "Observation/3737c2b0a7a699a2bfe660aa7e624f0b97d2c5aab24773a462c692473623c569",
    "resource": {
      "resourceType": "Observation",
      "meta": {
        "profile": [ "https://www.netzwerk-universitaetsmedizin.de/fhir/StructureDefinition/patient-in-icu" ]
      },
      "identifier": [ {
        "system": "https://mein.krankenhaus.de/fhir/NamingSystem/observationId",
        "value": "cfe26921c6847ff7e192e48ffdf5404988b4bce9f076ca8a565c839184de03b1"
      } ],
      "status": "final",
      "category": [ {
        "coding": [ {
          "system": "http://terminology.hl7.org/CodeSystem/observation-category",
          "code": "survey",
          "display": "Survey"
        } ]
      } ],
      "code": {
        "coding": [ {
          "system": "https://www.netzwerk-universitaetsmedizin.de/fhir/CodeSystem/ecrf-parameter-codes",
          "code": "01",
          "display": "Is the patient in the intensive care unit?"
        } ]
      },
      "subject": {
        "reference": "Patient/c48379323faf3a200ae9b56bcb1c2cc800089882f9227e65ddcb4ba61b258c2d"
      },
      "encounter": {
        "reference": "Encounter/184ddffacaca9034f9f1cb4ae18ffe2306480c502a98c52500388e8b96542598"
      },
      "_effectiveDateTime": {
        "extension": [ {
          "url": "http://hl7.org/fhir/StructureDefinition/data-absent-reason",
          "valueCode": "unknown"
        } ]
      },
      "valueCodeableConcept": {
        "coding": [ {
          "system": "http://snomed.info/sct",
          "code": "373067005"
        } ]
      }
    },
    "request": {
      "method": "POST",
      "url": "Observation",
      "ifNoneExist": "identifier=https://mein.krankenhaus.de/fhir/NamingSystem/observationId|3737c2b0a7a699a2bfe660aa7e624f0b97d2c5aab24773a462c692473623c569"
    }
  }, {
    "fullUrl": "Condition/fd0af27ae1ccc78e40e7c0dbc0313c9b04289aaa13583915a04e22c773ac05fc",
    "resource": {
      "resourceType": "Condition",
      "meta": {
        "profile": [ "https://www.netzwerk-universitaetsmedizin.de/fhir/StructureDefinition/dependence-on-ventilator" ]
      },
      "identifier": [ {
        "system": "https://mein.krankenhaus.de/fhir/NamingSystem/conditionId",
        "value": "edd998e54f76b27898043a6e0b0c812f3e6ecd21a2a591af704a38500453ba91"
      } ],
      "clinicalStatus": {
        "coding": [ {
          "system": "http://terminology.hl7.org/CodeSystem/condition-clinical",
          "code": "active",
          "display": "Active"
        } ]
      },
      "verificationStatus": {
        "coding": [ {
          "system": "http://terminology.hl7.org/CodeSystem/condition-ver-status",
          "code": "refuted",
          "display": "Refuted"
        }, {
          "system": "http://snomed.info/sct",
          "code": "410594000",
          "display": "Definitely NOT present (qualifier value)"
        } ]
      },
      "category": [ {
        "coding": [ {
          "system": "http://snomed.info/sct",
          "code": "404989005",
          "display": "Ventilation status (observable entity)"
        } ]
      } ],
      "code": {
        "coding": [ {
          "system": "http://snomed.info/sct",
          "code": "444932008"
        } ]
      },
      "subject": {
        "reference": "Patient/c48379323faf3a200ae9b56bcb1c2cc800089882f9227e65ddcb4ba61b258c2d"
      },
      "encounter": {
        "reference": "Encounter/184ddffacaca9034f9f1cb4ae18ffe2306480c502a98c52500388e8b96542598"
      },
      "_recordedDate": {
        "extension": [ {
          "url": "http://hl7.org/fhir/StructureDefinition/data-absent-reason",
          "valueCode": "unknown"
        } ]
      }
    },
    "request": {
      "method": "POST",
      "url": "Condition",
      "ifNoneExist": "identifier=https://mein.krankenhaus.de/fhir/NamingSystem/conditionId|fd0af27ae1ccc78e40e7c0dbc0313c9b04289aaa13583915a04e22c773ac05fc"
    }
  }, {
    "fullUrl": "Observation/fbe8cfe07ee2262b243fc9c43b15fd679af905bd3a7cb1e4dc2d8dc4a4f594b6",
    "resource": {
      "resourceType": "Observation",
      "meta": {
        "profile": [ "https://www.netzwerk-universitaetsmedizin.de/fhir/StructureDefinition/discharge-disposition" ]
      },
      "identifier": [ {
        "type": {
          "coding": [ {
            "system": "http://terminology.hl7.org/CodeSystem/v2-0203",
            "code": "OBI",
            "display": "Observation Instance Identifier"
          } ]
        },
        "system": "https://mein.krankenhaus.de/fhir/NamingSystem/observationId",
        "value": "fb6ad667b3a0fb556115a6842ec77b5b13e33be416294ee7cee50f1df91139f6",
        "assigner": {
          "reference": "Organization/3a4f3433bce81181bad2d8e0b8fafccf7dc800bc06f29be73dcb38b750a48f9a"
        }
      } ],
      "status": "final",
      "category": [ {
        "coding": [ {
          "system": "http://terminology.hl7.org/CodeSystem/observation-category",
          "code": "social-history",
          "display": "Social History"
        } ]
      } ],
      "code": {
        "coding": [ {
          "system": "http://loinc.org",
          "code": "55128-3"
        } ],
        "text": "type of Discharge"
      },
      "subject": {
        "reference": "Patient/c48379323faf3a200ae9b56bcb1c2cc800089882f9227e65ddcb4ba61b258c2d"
      },
      "encounter": {
        "reference": "Encounter/184ddffacaca9034f9f1cb4ae18ffe2306480c502a98c52500388e8b96542598"
      },
      "_effectiveDateTime": {
        "extension": [ {
          "url": "http://hl7.org/fhir/StructureDefinition/data-absent-reason",
          "valueCode": "unknown"
        } ]
      },
      "valueCodeableConcept": {
        "coding": [ {
          "system": "http://snomed.info/sct",
          "code": "3457005"
        } ]
      }
    },
    "request": {
      "method": "POST",
      "url": "Observation",
      "ifNoneExist": "identifier=https://mein.krankenhaus.de/fhir/NamingSystem/observationId|fbe8cfe07ee2262b243fc9c43b15fd679af905bd3a7cb1e4dc2d8dc4a4f594b6"
    }
  }, {
    "fullUrl": "Observation/48dd575feb73b0438eb589074d4d20553e0ec2b6b46f6f60e055081bae8abf7e",
    "resource": {
      "resourceType": "Observation",
      "meta": {
        "profile": [ "https://www.netzwerk-universitaetsmedizin.de/fhir/StructureDefinition/sars-cov-2-rt-pcr" ]
      },
      "identifier": [ {
        "type": {
          "coding": [ {
            "system": "http://terminology.hl7.org/CodeSystem/v2-0203",
            "code": "OBI",
            "display": "Observation Instance Identifier"
          } ]
        },
        "system": "https://mein.krankenhaus.de/fhir/NamingSystem/observationId",
        "value": "dbc300e8b5eb3579d3753097521f7b00e15d70be2e05ca7b385382dbbca007c0",
        "assigner": {
          "reference": "Organization/3a4f3433bce81181bad2d8e0b8fafccf7dc800bc06f29be73dcb38b750a48f9a"
        }
      } ],
      "status": "final",
      "category": [ {
        "coding": [ {
          "system": "http://terminology.hl7.org/CodeSystem/observation-category",
          "code": "laboratory",
          "display": "Laboratory"
        }, {
          "system": "http://loinc.org",
          "code": "26436-6",
          "display": "Laboratory studies (set)"
        } ]
      } ],
      "code": {
        "coding": [ {
          "system": "http://loinc.org",
          "code": "94500-6"
        } ]
      },
      "subject": {
        "reference": "Patient/c48379323faf3a200ae9b56bcb1c2cc800089882f9227e65ddcb4ba61b258c2d"
      },
      "encounter": {
        "reference": "Encounter/184ddffacaca9034f9f1cb4ae18ffe2306480c502a98c52500388e8b96542598"
      },
      "_effectiveDateTime": {
        "extension": [ {
          "url": "http://hl7.org/fhir/StructureDefinition/data-absent-reason",
          "valueCode": "unknown"
        } ]
      },
      "valueCodeableConcept": {
        "coding": [ {
          "system": "http://snomed.info/sct",
          "code": "260415000"
        } ]
      }
    },
    "request": {
      "method": "POST",
      "url": "Observation",
      "ifNoneExist": "identifier=https://mein.krankenhaus.de/fhir/NamingSystem/observationId|48dd575feb73b0438eb589074d4d20553e0ec2b6b46f6f60e055081bae8abf7e"
    }
  }, {
    "fullUrl": "MedicationStatement/d68781cb9bb68ce300e55d7455136ca91881d6b6c76275b5423c78d442990cb2",
    "resource": {
      "resourceType": "MedicationStatement",
      "meta": {
        "profile": [ "https://www.netzwerk-universitaetsmedizin.de/fhir/StructureDefinition/pharmacological-therapy" ]
      },
      "identifier": [ {
        "system": "https://mein.krankenhaus.de/fhir/NamingSystem/medicationstatementId",
        "value": "dfe5a5a9c0c919e7e7458e7d0a529f364f241bd5421d8e17687cfc7cd7f9f3e4"
      } ],
      "status": "not-taken",
      "medicationCodeableConcept": {
        "coding": [ {
          "system": "http://snomed.info/sct",
          "code": "41549009"
        } ],
        "text": "ACE inhibitors"
      },
      "subject": {
        "reference": "Patient/c48379323faf3a200ae9b56bcb1c2cc800089882f9227e65ddcb4ba61b258c2d"
      },
      "effectiveDateTime": "2020-12-16T13:10:00+00:00"
    },
    "request": {
      "method": "POST",
      "url": "MedicationStatement",
      "ifNoneExist": "identifier=https://mein.krankenhaus.de/fhir/NamingSystem/medicationstatementId|d68781cb9bb68ce300e55d7455136ca91881d6b6c76275b5423c78d442990cb2"
    }
  }, {
    "fullUrl": "MedicationStatement/0e21e6157791b9d45f76d4687e148f000537e3afe763cc477de125070a35fcee",
    "resource": {
      "resourceType": "MedicationStatement",
      "meta": {
        "profile": [ "https://www.netzwerk-universitaetsmedizin.de/fhir/StructureDefinition/pharmacological-therapy" ]
      },
      "identifier": [ {
        "system": "https://mein.krankenhaus.de/fhir/NamingSystem/medicationstatementId",
        "value": "192baa8103e738f6abfe96b8933e8184699759fa2f00f69fae8478c6c19b4423"
      } ],
      "status": "not-taken",
      "medicationCodeableConcept": {
        "coding": [ {
          "system": "http://snomed.info/sct",
          "code": "333710000"
        } ],
        "text": "immunoglobulins"
      },
      "subject": {
        "reference": "Patient/c48379323faf3a200ae9b56bcb1c2cc800089882f9227e65ddcb4ba61b258c2d"
      },
      "effectiveDateTime": "2020-12-16T13:10:00+00:00"
    },
    "request": {
      "method": "POST",
      "url": "MedicationStatement",
      "ifNoneExist": "identifier=https://mein.krankenhaus.de/fhir/NamingSystem/medicationstatementId|0e21e6157791b9d45f76d4687e148f000537e3afe763cc477de125070a35fcee"
    }
  }, {
    "fullUrl": "MedicationStatement/9048e766a6dbce5a79a43e3967a206f6c63b4960cc7757a40465ec43ea614911",
    "resource": {
      "resourceType": "MedicationStatement",
      "meta": {
        "profile": [ "https://www.netzwerk-universitaetsmedizin.de/fhir/StructureDefinition/pharmacological-therapy" ]
      },
      "identifier": [ {
        "system": "https://mein.krankenhaus.de/fhir/NamingSystem/medicationstatementId",
        "value": "5f88913cf57adb647eff23dde4fa398f15603bd493d0f6ec8199c6b9e23f3e6f"
      } ],
      "status": "not-taken",
      "medicationCodeableConcept": {
        "coding": [ {
          "system": "http://fhir.de/CodeSystem/dimdi/atc",
          "code": "N02B"
        }, {
          "system": "https://www.netzwerk-universitaetsmedizin.de/fhir/CodeSystem/ecrf-parameter-codes",
          "code": "antipyretic"
        } ]
      },
      "subject": {
        "reference": "Patient/c48379323faf3a200ae9b56bcb1c2cc800089882f9227e65ddcb4ba61b258c2d"
      },
      "effectiveDateTime": "2020-06-02T14:43:00+00:00"
    },
    "request": {
      "method": "POST",
      "url": "MedicationStatement",
      "ifNoneExist": "identifier=https://mein.krankenhaus.de/fhir/NamingSystem/medicationstatementId|9048e766a6dbce5a79a43e3967a206f6c63b4960cc7757a40465ec43ea614911"
    }
  }, {
    "fullUrl": "MedicationStatement/2e081ea193d936f3494090b000b36877b3869fdf78b2cb70828f0d024f66f18a",
    "resource": {
      "resourceType": "MedicationStatement",
      "meta": {
        "profile": [ "https://www.netzwerk-universitaetsmedizin.de/fhir/StructureDefinition/pharmacological-therapy" ]
      },
      "identifier": [ {
        "system": "https://mein.krankenhaus.de/fhir/NamingSystem/medicationstatementId",
        "value": "5841c40ab4696e58bad5ca9202dbf724c49832509b51cf2bf6512a0d8fddd431"
      } ],
      "status": "unknown",
      "medicationCodeableConcept": {
        "coding": [ {
          "system": "http://fhir.de/CodeSystem/dimdi/atc",
          "code": "G01B"
        }, {
          "system": "http://fhir.de/CodeSystem/dimdi/atc",
          "code": "H02"
        }, {
          "system": "http://fhir.de/CodeSystem/dimdi/atc",
          "code": "M01BA"
        }, {
          "system": "http://fhir.de/CodeSystem/dimdi/atc",
          "code": "R03AK"
        }, {
          "system": "http://fhir.de/CodeSystem/dimdi/atc",
          "code": "S02B"
        }, {
          "system": "http://fhir.de/CodeSystem/dimdi/atc",
          "code": "R03AL"
        }, {
          "system": "http://snomed.info/sct",
          "code": "768759001"
        } ]
      },
      "subject": {
        "reference": "Patient/c48379323faf3a200ae9b56bcb1c2cc800089882f9227e65ddcb4ba61b258c2d"
      },
      "effectiveDateTime": "2020-06-02T14:43:00+00:00"
    },
    "request": {
      "method": "POST",
      "url": "MedicationStatement",
      "ifNoneExist": "identifier=https://mein.krankenhaus.de/fhir/NamingSystem/medicationstatementId|2e081ea193d936f3494090b000b36877b3869fdf78b2cb70828f0d024f66f18a"
    }
  }, {
    "fullUrl": "MedicationStatement/5a2d17038f189ebffba4fbe3d3dc018070615b347c885d2a763e34b4ad2fd65f",
    "resource": {
      "resourceType": "MedicationStatement",
      "meta": {
        "profile": [ "https://www.netzwerk-universitaetsmedizin.de/fhir/StructureDefinition/pharmacological-therapy" ]
      },
      "identifier": [ {
        "system": "https://mein.krankenhaus.de/fhir/NamingSystem/medicationstatementId",
        "value": "39bb7d3eb93af9d7008d66533b05000c29cb52275161495a9124540c7e05ba24"
      } ],
      "status": "not-taken",
      "medicationCodeableConcept": {
        "coding": [ {
          "system": "http://fhir.de/CodeSystem/dimdi/atc",
          "code": "J05AE08"
        }, {
          "system": "http://fhir.de/CodeSystem/dimdi/atc",
          "code": "J05AR15"
        }, {
          "system": "http://fhir.de/CodeSystem/dimdi/atc",
          "code": "J05AR23"
        }, {
          "system": "http://snomed.info/sct",
          "code": "413591007"
        } ]
      },
      "subject": {
        "reference": "Patient/c48379323faf3a200ae9b56bcb1c2cc800089882f9227e65ddcb4ba61b258c2d"
      },
      "effectiveDateTime": "2020-06-02T14:43:00+00:00"
    },
    "request": {
      "method": "POST",
      "url": "MedicationStatement",
      "ifNoneExist": "identifier=https://mein.krankenhaus.de/fhir/NamingSystem/medicationstatementId|5a2d17038f189ebffba4fbe3d3dc018070615b347c885d2a763e34b4ad2fd65f"
    }
  }, {
    "fullUrl": "MedicationStatement/188b96921882eec9dd87bf166fb857b73fd20d4527b6e3bcc34f5e37d76b1bee",
    "resource": {
      "resourceType": "MedicationStatement",
      "meta": {
        "profile": [ "https://www.netzwerk-universitaetsmedizin.de/fhir/StructureDefinition/pharmacological-therapy" ]
      },
      "identifier": [ {
        "system": "https://mein.krankenhaus.de/fhir/NamingSystem/medicationstatementId",
        "value": "726c7a71120d2884a2e613e911474e2fcf9c49c28bb5dd7652d587544d158867"
      } ],
      "status": "not-taken",
      "medicationCodeableConcept": {
        "coding": [ {
          "system": "http://fhir.de/CodeSystem/dimdi/atc",
          "code": "J05AR22"
        }, {
          "system": "http://fhir.de/CodeSystem/dimdi/atc",
          "code": "J05AE10"
        }, {
          "system": "http://fhir.de/CodeSystem/dimdi/atc",
          "code": "J05AR14"
        }, {
          "system": "http://snomed.info/sct",
          "code": "424096001"
        } ]
      },
      "subject": {
        "reference": "Patient/c48379323faf3a200ae9b56bcb1c2cc800089882f9227e65ddcb4ba61b258c2d"
      },
      "effectiveDateTime": "2020-06-02T14:43:00+00:00"
    },
    "request": {
      "method": "POST",
      "url": "MedicationStatement",
      "ifNoneExist": "identifier=https://mein.krankenhaus.de/fhir/NamingSystem/medicationstatementId|188b96921882eec9dd87bf166fb857b73fd20d4527b6e3bcc34f5e37d76b1bee"
    }
  }, {
    "fullUrl": "MedicationStatement/738fd5034884be90dcdad784d9aa8096a10ffce48447b9b3703f0744e2115eca",
    "resource": {
      "resourceType": "MedicationStatement",
      "meta": {
        "profile": [ "https://www.netzwerk-universitaetsmedizin.de/fhir/StructureDefinition/pharmacological-therapy" ]
      },
      "identifier": [ {
        "system": "https://mein.krankenhaus.de/fhir/NamingSystem/medicationstatementId",
        "value": "7c85c3cfb061eff8ab2a9fc6a6e6de58408171af7da5230cddeaa555d04faf01"
      } ],
      "status": "not-taken",
      "medicationCodeableConcept": {
        "coding": [ {
          "system": "http://fhir.de/CodeSystem/dimdi/atc",
          "code": "P01BA01"
        }, {
          "system": "http://snomed.info/sct",
          "code": "14728000"
        } ]
      },
      "subject": {
        "reference": "Patient/c48379323faf3a200ae9b56bcb1c2cc800089882f9227e65ddcb4ba61b258c2d"
      },
      "effectiveDateTime": "2020-06-02T14:43:00+00:00"
    },
    "request": {
      "method": "POST",
      "url": "MedicationStatement",
      "ifNoneExist": "identifier=https://mein.krankenhaus.de/fhir/NamingSystem/medicationstatementId|738fd5034884be90dcdad784d9aa8096a10ffce48447b9b3703f0744e2115eca"
    }
  }, {
    "fullUrl": "MedicationStatement/77c9ed1d9ccbad6b0da1e05ac8ff4dc0cf6bca19425412bd69ef40bc742f50d1",
    "resource": {
      "resourceType": "MedicationStatement",
      "meta": {
        "profile": [ "https://www.netzwerk-universitaetsmedizin.de/fhir/StructureDefinition/pharmacological-therapy" ]
      },
      "identifier": [ {
        "system": "https://mein.krankenhaus.de/fhir/NamingSystem/medicationstatementId",
        "value": "adccb08376fc7e5faf7cce7e71919ee8a75c98caf344755fab941f354cdd2b7e"
      } ],
      "status": "not-taken",
      "medicationCodeableConcept": {
        "coding": [ {
          "system": "http://fhir.de/CodeSystem/dimdi/atc",
          "code": "P01BA02"
        }, {
          "system": "http://snomed.info/sct",
          "code": "83490000"
        } ]
      },
      "subject": {
        "reference": "Patient/c48379323faf3a200ae9b56bcb1c2cc800089882f9227e65ddcb4ba61b258c2d"
      },
      "effectiveDateTime": "2020-06-02T14:43:00+00:00"
    },
    "request": {
      "method": "POST",
      "url": "MedicationStatement",
      "ifNoneExist": "identifier=https://mein.krankenhaus.de/fhir/NamingSystem/medicationstatementId|77c9ed1d9ccbad6b0da1e05ac8ff4dc0cf6bca19425412bd69ef40bc742f50d1"
    }
  }, {
    "fullUrl": "MedicationStatement/d390da4533d542ff4c90f52731e48a36b1aaaf426a4fd0d407d874be25499f2b",
    "resource": {
      "resourceType": "MedicationStatement",
      "meta": {
        "profile": [ "https://www.netzwerk-universitaetsmedizin.de/fhir/StructureDefinition/pharmacological-therapy" ]
      },
      "identifier": [ {
        "system": "https://mein.krankenhaus.de/fhir/NamingSystem/medicationstatementId",
        "value": "7e0e81120847256a0b87df6b740114ae6873205ff3bd9d918060cd09154758a2"
      } ],
      "status": "unknown",
      "medicationCodeableConcept": {
        "coding": [ {
          "system": "http://fhir.de/CodeSystem/dimdi/atc",
          "code": "D11AX22"
        }, {
          "system": "http://fhir.de/CodeSystem/dimdi/atc",
          "code": "P02CF01"
        }, {
          "system": "http://snomed.info/sct",
          "code": "96138006"
        } ]
      },
      "subject": {
        "reference": "Patient/c48379323faf3a200ae9b56bcb1c2cc800089882f9227e65ddcb4ba61b258c2d"
      },
      "effectiveDateTime": "2020-06-02T14:43:00+00:00"
    },
    "request": {
      "method": "POST",
      "url": "MedicationStatement",
      "ifNoneExist": "identifier=https://mein.krankenhaus.de/fhir/NamingSystem/medicationstatementId|d390da4533d542ff4c90f52731e48a36b1aaaf426a4fd0d407d874be25499f2b"
    }
  }, {
    "fullUrl": "MedicationStatement/0cf4c8ebb967a8f18bb6f287f74fd3691f25fb2d5034ba1920d6dd4f0272de67",
    "resource": {
      "resourceType": "MedicationStatement",
      "meta": {
        "profile": [ "https://www.netzwerk-universitaetsmedizin.de/fhir/StructureDefinition/pharmacological-therapy" ]
      },
      "identifier": [ {
        "system": "https://mein.krankenhaus.de/fhir/NamingSystem/medicationstatementId",
        "value": "8c44db208d4b1c8123097ffe463b665387e8216bf1427d448467d246e1e96a96"
      } ],
      "status": "unknown",
      "medicationCodeableConcept": {
        "coding": [ {
          "system": "http://fhir.de/CodeSystem/dimdi/atc",
          "code": "J05AR10"
        }, {
          "system": "http://snomed.info/sct",
          "code": "134573001"
        } ]
      },
      "subject": {
        "reference": "Patient/c48379323faf3a200ae9b56bcb1c2cc800089882f9227e65ddcb4ba61b258c2d"
      },
      "effectiveDateTime": "2020-06-02T14:43:00+00:00"
    },
    "request": {
      "method": "POST",
      "url": "MedicationStatement",
      "ifNoneExist": "identifier=https://mein.krankenhaus.de/fhir/NamingSystem/medicationstatementId|0cf4c8ebb967a8f18bb6f287f74fd3691f25fb2d5034ba1920d6dd4f0272de67"
    }
  }, {
    "fullUrl": "MedicationStatement/32c6a208cefe37fe611a3429661845483c2029591e5bec789511cc53ea02e97c",
    "resource": {
      "resourceType": "MedicationStatement",
      "meta": {
        "profile": [ "https://www.netzwerk-universitaetsmedizin.de/fhir/StructureDefinition/pharmacological-therapy" ]
      },
      "identifier": [ {
        "system": "https://mein.krankenhaus.de/fhir/NamingSystem/medicationstatementId",
        "value": "f5095613251b7b0372e03f36cc1d9e56f52b007789a9ff93194991dfc6e48203"
      } ],
      "status": "unknown",
      "medicationCodeableConcept": {
        "coding": [ {
          "system": "http://fhir.de/CodeSystem/dimdi/atc",
          "code": "J05AB06"
        }, {
          "system": "http://fhir.de/CodeSystem/dimdi/atc",
          "code": "S01AD09"
        }, {
          "system": "http://snomed.info/sct",
          "code": "78025001"
        } ]
      },
      "subject": {
        "reference": "Patient/c48379323faf3a200ae9b56bcb1c2cc800089882f9227e65ddcb4ba61b258c2d"
      },
      "effectiveDateTime": "2020-06-02T14:43:00+00:00"
    },
    "request": {
      "method": "POST",
      "url": "MedicationStatement",
      "ifNoneExist": "identifier=https://mein.krankenhaus.de/fhir/NamingSystem/medicationstatementId|32c6a208cefe37fe611a3429661845483c2029591e5bec789511cc53ea02e97c"
    }
  }, {
    "fullUrl": "MedicationStatement/d46b259273a21a381aa101b98a463ce24dafb576b3d4b8459fb32418898a025e",
    "resource": {
      "resourceType": "MedicationStatement",
      "meta": {
        "profile": [ "https://www.netzwerk-universitaetsmedizin.de/fhir/StructureDefinition/pharmacological-therapy" ]
      },
      "identifier": [ {
        "system": "https://mein.krankenhaus.de/fhir/NamingSystem/medicationstatementId",
        "value": "5159b9fb484426d5dcfbd632350cf6f75ff24916dac515edd1a1fe34d21fb853"
      } ],
      "status": "active",
      "medicationCodeableConcept": {
        "coding": [ {
          "system": "http://fdasis.nlm.nih.gov",
          "code": "3QKI37EEHE"
        }, {
          "system": "http://snomed.info/sct",
          "code": "870518005"
        } ]
      },
      "subject": {
        "reference": "Patient/c48379323faf3a200ae9b56bcb1c2cc800089882f9227e65ddcb4ba61b258c2d"
      },
      "effectiveDateTime": "2020-06-02T14:43:00+00:00"
    },
    "request": {
      "method": "POST",
      "url": "MedicationStatement",
      "ifNoneExist": "identifier=https://mein.krankenhaus.de/fhir/NamingSystem/medicationstatementId|d46b259273a21a381aa101b98a463ce24dafb576b3d4b8459fb32418898a025e"
    }
  }, {
    "fullUrl": "MedicationStatement/26f09f682a409516786ff9ce13336db4e787257f45535537dbe880f5701884bd",
    "resource": {
      "resourceType": "MedicationStatement",
      "meta": {
        "profile": [ "https://www.netzwerk-universitaetsmedizin.de/fhir/StructureDefinition/pharmacological-therapy" ]
      },
      "identifier": [ {
        "system": "https://mein.krankenhaus.de/fhir/NamingSystem/medicationstatementId",
        "value": "6e1a8d69d53df278905f6544f9e0658983d9028650d9f6583c2da33650238cf9"
      } ],
      "status": "not-taken",
      "medicationCodeableConcept": {
        "coding": [ {
          "system": "http://fhir.de/CodeSystem/dimdi/atc",
          "code": "J05AP01"
        }, {
          "system": "http://snomed.info/sct",
          "code": "35063004"
        } ]
      },
      "subject": {
        "reference": "Patient/c48379323faf3a200ae9b56bcb1c2cc800089882f9227e65ddcb4ba61b258c2d"
      },
      "effectiveDateTime": "2020-06-02T14:43:00+00:00"
    },
    "request": {
      "method": "POST",
      "url": "MedicationStatement",
      "ifNoneExist": "identifier=https://mein.krankenhaus.de/fhir/NamingSystem/medicationstatementId|26f09f682a409516786ff9ce13336db4e787257f45535537dbe880f5701884bd"
    }
  }, {
    "fullUrl": "MedicationStatement/47f0256bbcffbd5a8bdc7add77ac841ad304f7b1337ac69a73dcb01c173f8468",
    "resource": {
      "resourceType": "MedicationStatement",
      "meta": {
        "profile": [ "https://www.netzwerk-universitaetsmedizin.de/fhir/StructureDefinition/pharmacological-therapy" ]
      },
      "identifier": [ {
        "system": "https://mein.krankenhaus.de/fhir/NamingSystem/medicationstatementId",
        "value": "ef5aa0f36d08b6d8343b9e6629f45b5d3c6aeb766fbaba43ad028a4b0c1408cb"
      } ],
      "status": "not-taken",
      "medicationCodeableConcept": {
        "coding": [ {
          "system": "http://fhir.de/CodeSystem/dimdi/atc",
          "code": "B02AB04"
        }, {
          "system": "https://www.netzwerk-universitaetsmedizin.de/fhir/CodeSystem/ecrf-parameter-codes",
          "code": "camostat"
        } ]
      },
      "subject": {
        "reference": "Patient/c48379323faf3a200ae9b56bcb1c2cc800089882f9227e65ddcb4ba61b258c2d"
      },
      "effectiveDateTime": "2020-06-02T14:43:00+00:00"
    },
    "request": {
      "method": "POST",
      "url": "MedicationStatement",
      "ifNoneExist": "identifier=https://mein.krankenhaus.de/fhir/NamingSystem/medicationstatementId|47f0256bbcffbd5a8bdc7add77ac841ad304f7b1337ac69a73dcb01c173f8468"
    }
  }, {
    "fullUrl": "MedicationStatement/ab3eac77020a8230049ba70a2e8bcdf6fd4215c5d5f0f1dbbe132e0ca05ac2a1",
    "resource": {
      "resourceType": "MedicationStatement",
      "meta": {
        "profile": [ "https://www.netzwerk-universitaetsmedizin.de/fhir/StructureDefinition/pharmacological-therapy" ]
      },
      "identifier": [ {
        "system": "https://mein.krankenhaus.de/fhir/NamingSystem/medicationstatementId",
        "value": "c29d28f65b60e35afa682d13e38dd6a721fb15e1695bb0c28f2270f5df1ec7e5"
      } ],
      "status": "active",
      "medicationCodeableConcept": {
        "coding": [ {
          "system": "http://fhir.de/CodeSystem/dimdi/atc",
          "code": "J05AX27"
        }, {
          "system": "https://www.netzwerk-universitaetsmedizin.de/fhir/CodeSystem/ecrf-parameter-codes",
          "code": "favipiravir"
        } ]
      },
      "subject": {
        "reference": "Patient/c48379323faf3a200ae9b56bcb1c2cc800089882f9227e65ddcb4ba61b258c2d"
      },
      "effectiveDateTime": "2020-06-02T14:43:00+00:00"
    },
    "request": {
      "method": "POST",
      "url": "MedicationStatement",
      "ifNoneExist": "identifier=https://mein.krankenhaus.de/fhir/NamingSystem/medicationstatementId|ab3eac77020a8230049ba70a2e8bcdf6fd4215c5d5f0f1dbbe132e0ca05ac2a1"
    }
  }, {
    "fullUrl": "MedicationStatement/8c2462bb5a3018a623e7af119d12a296f2d29732c5263d6cebd1f2ccce5d2580",
    "resource": {
      "resourceType": "MedicationStatement",
      "meta": {
        "profile": [ "https://www.netzwerk-universitaetsmedizin.de/fhir/StructureDefinition/pharmacological-therapy" ]
      },
      "identifier": [ {
        "system": "https://mein.krankenhaus.de/fhir/NamingSystem/medicationstatementId",
        "value": "df58c4c50c7ffffcd1e5e91f80328d2a6ba08d5d11735fcb2cae7933d900491b"
      } ],
      "status": "unknown",
      "medicationCodeableConcept": {
        "coding": [ {
          "system": "urn:oid:2.16.840.1.113883.6.18.2.6",
          "code": "E9743"
        }, {
          "system": "urn:oid:2.16.840.1.113883.6.18.2.6",
          "code": "E9744"
        }, {
          "system": "urn:oid:2.16.840.1.113883.6.18.2.6",
          "code": "E9745"
        }, {
          "system": "urn:oid:2.16.840.1.113883.6.18.2.6",
          "code": "E9746"
        }, {
          "system": "urn:oid:2.16.840.1.113883.6.18.2.6",
          "code": "E9747"
        }, {
          "system": "urn:oid:2.16.840.1.113883.6.18.2.6",
          "code": "E9748"
        }, {
          "system": "urn:oid:2.16.840.1.113883.6.18.2.6",
          "code": "E9749"
        }, {
          "system": "urn:oid:2.16.840.1.113883.6.18.2.6",
          "code": "E9750"
        }, {
          "system": "urn:oid:2.16.840.1.113883.6.18.2.6",
          "code": "E9752"
        }, {
          "system": "https://www.netzwerk-universitaetsmedizin.de/fhir/CodeSystem/ecrf-parameter-codes",
          "code": "convalescent-plasma"
        } ]
      },
      "subject": {
        "reference": "Patient/c48379323faf3a200ae9b56bcb1c2cc800089882f9227e65ddcb4ba61b258c2d"
      },
      "effectiveDateTime": "2020-06-02T14:43:00+00:00"
    },
    "request": {
      "method": "POST",
      "url": "MedicationStatement",
      "ifNoneExist": "identifier=https://mein.krankenhaus.de/fhir/NamingSystem/medicationstatementId|8c2462bb5a3018a623e7af119d12a296f2d29732c5263d6cebd1f2ccce5d2580"
    }
  }, {
    "fullUrl": "MedicationStatement/30bd4d64eb369dbc6bea84c361220521a5db3ca2e288b9aa5383f809079175ca",
    "resource": {
      "resourceType": "MedicationStatement",
      "meta": {
        "profile": [ "https://www.netzwerk-universitaetsmedizin.de/fhir/StructureDefinition/pharmacological-therapy" ]
      },
      "identifier": [ {
        "system": "https://mein.krankenhaus.de/fhir/NamingSystem/medicationstatementId",
        "value": "345723b44f17ad23d21d260654ce283ab79a5cac5a590e38f3e3e93543d8e1dd"
      } ],
      "status": "active",
      "medicationCodeableConcept": {
        "coding": [ {
          "system": "https://www.netzwerk-universitaetsmedizin.de/fhir/CodeSystem/ecrf-parameter-codes",
          "code": "steroids-gt"
        } ]
      },
      "subject": {
        "reference": "Patient/c48379323faf3a200ae9b56bcb1c2cc800089882f9227e65ddcb4ba61b258c2d"
      },
      "effectiveDateTime": "2020-06-02T14:43:00+00:00"
    },
    "request": {
      "method": "POST",
      "url": "MedicationStatement",
      "ifNoneExist": "identifier=https://mein.krankenhaus.de/fhir/NamingSystem/medicationstatementId|30bd4d64eb369dbc6bea84c361220521a5db3ca2e288b9aa5383f809079175ca"
    }
  }, {
    "fullUrl": "MedicationStatement/16f26845c98f37858e62b361afff4637c46f76bd63794b5ae99bfaba21ea5d7a",
    "resource": {
      "resourceType": "MedicationStatement",
      "meta": {
        "profile": [ "https://www.netzwerk-universitaetsmedizin.de/fhir/StructureDefinition/pharmacological-therapy" ]
      },
      "identifier": [ {
        "system": "https://mein.krankenhaus.de/fhir/NamingSystem/medicationstatementId",
        "value": "b8da1f641b2bc4cc01f527c0d7319b99c87340fc26422af82eb327bddd1d81b0"
      } ],
      "status": "not-taken",
      "medicationCodeableConcept": {
        "coding": [ {
          "system": "https://www.netzwerk-universitaetsmedizin.de/fhir/CodeSystem/ecrf-parameter-codes",
          "code": "steroids-lt"
        } ]
      },
      "subject": {
        "reference": "Patient/c48379323faf3a200ae9b56bcb1c2cc800089882f9227e65ddcb4ba61b258c2d"
      },
      "effectiveDateTime": "2020-06-02T14:43:00+00:00"
    },
    "request": {
      "method": "POST",
      "url": "MedicationStatement",
      "ifNoneExist": "identifier=https://mein.krankenhaus.de/fhir/NamingSystem/medicationstatementId|16f26845c98f37858e62b361afff4637c46f76bd63794b5ae99bfaba21ea5d7a"
    }
  }, {
    "fullUrl": "MedicationStatement/a5516502491b0bbcea5d65a73f030688a925c29ff14648557657b689accd4f50",
    "resource": {
      "resourceType": "MedicationStatement",
      "meta": {
        "profile": [ "https://www.netzwerk-universitaetsmedizin.de/fhir/StructureDefinition/pharmacological-therapy" ]
      },
      "identifier": [ {
        "system": "https://mein.krankenhaus.de/fhir/NamingSystem/medicationstatementId",
        "value": "65e6faa6d730e94b01f8e6b164a66584785e57ef4c8a259c83b80e9db6e7986e"
      } ],
      "status": "unknown",
      "medicationCodeableConcept": {
        "coding": [ {
          "system": "http://fhir.de/CodeSystem/dimdi/ops",
          "code": "6-005.m"
        }, {
          "system": "http://fhir.de/CodeSystem/dimdi/ops",
          "code": "6-005.n"
        }, {
          "system": "http://fhir.de/CodeSystem/dimdi/atc",
          "code": "L04AC07"
        }, {
          "system": "http://snomed.info/sct",
          "code": "444649004"
        } ]
      },
      "subject": {
        "reference": "Patient/c48379323faf3a200ae9b56bcb1c2cc800089882f9227e65ddcb4ba61b258c2d"
      },
      "effectiveDateTime": "2020-06-02T14:43:00+00:00"
    },
    "request": {
      "method": "POST",
      "url": "MedicationStatement",
      "ifNoneExist": "identifier=https://mein.krankenhaus.de/fhir/NamingSystem/medicationstatementId|a5516502491b0bbcea5d65a73f030688a925c29ff14648557657b689accd4f50"
    }
  }, {
    "fullUrl": "MedicationStatement/faa00db8f93553fbd2a0a4857bc2b24d6a9ca74069c45ce02e9c7b7477a61d10",
    "resource": {
      "resourceType": "MedicationStatement",
      "meta": {
        "profile": [ "https://www.netzwerk-universitaetsmedizin.de/fhir/StructureDefinition/pharmacological-therapy" ]
      },
      "identifier": [ {
        "system": "https://mein.krankenhaus.de/fhir/NamingSystem/medicationstatementId",
        "value": "365f6487d122c53d4e046a777c16905e3d55e2f389f92d4c5e46d2bb35f878e4"
      } ],
      "status": "not-taken",
      "medicationCodeableConcept": {
        "coding": [ {
          "system": "http://fhir.de/CodeSystem/dimdi/ops",
          "code": "6-00a.g"
        }, {
          "system": "http://fhir.de/CodeSystem/dimdi/atc",
          "code": "L04AC14"
        }, {
          "system": "http://snomed.info/sct",
          "code": "763522001"
        } ]
      },
      "subject": {
        "reference": "Patient/c48379323faf3a200ae9b56bcb1c2cc800089882f9227e65ddcb4ba61b258c2d"
      },
      "effectiveDateTime": "2020-06-02T14:43:00+00:00"
    },
    "request": {
      "method": "POST",
      "url": "MedicationStatement",
      "ifNoneExist": "identifier=https://mein.krankenhaus.de/fhir/NamingSystem/medicationstatementId|faa00db8f93553fbd2a0a4857bc2b24d6a9ca74069c45ce02e9c7b7477a61d10"
    }
  }, {
    "fullUrl": "MedicationStatement/f4acbb78fdf87319a7ba338a3752452ad973b53bbdc21c063684134ce60f686d",
    "resource": {
      "resourceType": "MedicationStatement",
      "meta": {
        "profile": [ "https://www.netzwerk-universitaetsmedizin.de/fhir/StructureDefinition/pharmacological-therapy" ]
      },
      "identifier": [ {
        "system": "https://mein.krankenhaus.de/fhir/NamingSystem/medicationstatementId",
        "value": "cd22c9ff22f415d2f36f9dfae99b536845ed783a1808b5da191b1bd29533bc4e"
      } ],
      "status": "unknown",
      "medicationCodeableConcept": {
        "coding": [ {
          "system": "http://fhir.de/CodeSystem/dimdi/ops",
          "code": "6-005.8"
        }, {
          "system": "http://fhir.de/CodeSystem/dimdi/ops",
          "code": "6-004.e"
        }, {
          "system": "http://fhir.de/CodeSystem/dimdi/atc",
          "code": "L01XE10"
        }, {
          "system": "http://fhir.de/CodeSystem/dimdi/atc",
          "code": "S01XA18"
        }, {
          "system": "http://fhir.de/CodeSystem/dimdi/atc",
          "code": "L01XE18"
        }, {
          "system": "http://fhir.de/CodeSystem/dimdi/atc",
          "code": "L04AA18"
        }, {
          "system": "http://fhir.de/CodeSystem/dimdi/atc",
          "code": "L04AA10"
        }, {
          "system": "http://fhir.de/CodeSystem/dimdi/atc",
          "code": "D11AH01"
        }, {
          "system": "http://fhir.de/CodeSystem/dimdi/atc",
          "code": "L04AD"
        }, {
          "system": "http://fhir.de/CodeSystem/dimdi/atc",
          "code": "L04AB"
        }, {
          "system": "http://snomed.info/sct",
          "code": "416587008"
        } ]
      },
      "subject": {
        "reference": "Patient/c48379323faf3a200ae9b56bcb1c2cc800089882f9227e65ddcb4ba61b258c2d"
      },
      "effectiveDateTime": "2020-06-02T14:43:00+00:00"
    },
    "request": {
      "method": "POST",
      "url": "MedicationStatement",
      "ifNoneExist": "identifier=https://mein.krankenhaus.de/fhir/NamingSystem/medicationstatementId|f4acbb78fdf87319a7ba338a3752452ad973b53bbdc21c063684134ce60f686d"
    }
  }, {
    "fullUrl": "MedicationStatement/dfbc5f13c7625881ee01e88adf24db16af6127454f82f12e3813ed9552dc2b70",
    "resource": {
      "resourceType": "MedicationStatement",
      "meta": {
        "profile": [ "https://www.netzwerk-universitaetsmedizin.de/fhir/StructureDefinition/pharmacological-therapy" ]
      },
      "identifier": [ {
        "system": "https://mein.krankenhaus.de/fhir/NamingSystem/medicationstatementId",
        "value": "e1a5d195939dd5584e19dbd1fe0049ce83e6fd31d97b229cb158b5224b9417a9"
      } ],
      "status": "active",
      "medicationCodeableConcept": {
        "coding": [ {
          "system": "http://fhir.de/CodeSystem/dimdi/ops",
          "code": "6-002.b"
        } ]
      },
      "subject": {
        "reference": "Patient/c48379323faf3a200ae9b56bcb1c2cc800089882f9227e65ddcb4ba61b258c2d"
      },
      "effectiveDateTime": "2020-06-02T14:43:00+00:00"
    },
    "request": {
      "method": "POST",
      "url": "MedicationStatement",
      "ifNoneExist": "identifier=https://mein.krankenhaus.de/fhir/NamingSystem/medicationstatementId|dfbc5f13c7625881ee01e88adf24db16af6127454f82f12e3813ed9552dc2b70"
    }
  }, {
    "fullUrl": "MedicationStatement/8dafdbf253e74f5df099cc70ec4447d5bfbd404fac12088216d1566f98d46ff6",
    "resource": {
      "resourceType": "MedicationStatement",
      "meta": {
        "profile": [ "https://www.netzwerk-universitaetsmedizin.de/fhir/StructureDefinition/pharmacological-therapy" ]
      },
      "identifier": [ {
        "system": "https://mein.krankenhaus.de/fhir/NamingSystem/medicationstatementId",
        "value": "70a1cb5264be56efd5369ed6aa086a0510c766633aa7acca040840cb28c7ba63"
      } ],
      "status": "not-taken",
      "medicationCodeableConcept": {
        "coding": [ {
          "system": "http://fhir.de/CodeSystem/dimdi/ops",
          "code": "6-006.7"
        }, {
          "system": "http://fhir.de/CodeSystem/dimdi/atc",
          "code": "L04AC"
        }, {
          "system": "http://snomed.info/sct",
          "code": "430817009"
        } ]
      },
      "subject": {
        "reference": "Patient/c48379323faf3a200ae9b56bcb1c2cc800089882f9227e65ddcb4ba61b258c2d"
      },
      "effectiveDateTime": "2020-06-02T14:43:00+00:00"
    },
    "request": {
      "method": "POST",
      "url": "MedicationStatement",
      "ifNoneExist": "identifier=https://mein.krankenhaus.de/fhir/NamingSystem/medicationstatementId|8dafdbf253e74f5df099cc70ec4447d5bfbd404fac12088216d1566f98d46ff6"
    }
  }, {
    "fullUrl": "MedicationStatement/f1a9a758bb42995615e8a7b80211c66230d76c9bb164440460d4fe66aca39d30",
    "resource": {
      "resourceType": "MedicationStatement",
      "meta": {
        "profile": [ "https://www.netzwerk-universitaetsmedizin.de/fhir/StructureDefinition/pharmacological-therapy" ]
      },
      "identifier": [ {
        "system": "https://mein.krankenhaus.de/fhir/NamingSystem/medicationstatementId",
        "value": "6b20e8bb55854dc243afb29d55f7b912b1d82e3943605ce807a5e48c344ecaed"
      } ],
      "status": "not-taken",
      "medicationCodeableConcept": {
        "coding": [ {
          "system": "http://fhir.de/CodeSystem/dimdi/atc",
          "code": "M04AC01"
        }, {
          "system": "http://snomed.info/sct",
          "code": "73133000"
        } ]
      },
      "subject": {
        "reference": "Patient/c48379323faf3a200ae9b56bcb1c2cc800089882f9227e65ddcb4ba61b258c2d"
      },
      "effectiveDateTime": "2020-06-02T14:43:00+00:00"
    },
    "request": {
      "method": "POST",
      "url": "MedicationStatement",
      "ifNoneExist": "identifier=https://mein.krankenhaus.de/fhir/NamingSystem/medicationstatementId|f1a9a758bb42995615e8a7b80211c66230d76c9bb164440460d4fe66aca39d30"
    }
  }, {
    "fullUrl": "MedicationStatement/4d25a19547d1695fb798b7bf1ae61aa2f10c646382247eb363e32a7850c1db53",
    "resource": {
      "resourceType": "MedicationStatement",
      "meta": {
        "profile": [ "https://www.netzwerk-universitaetsmedizin.de/fhir/StructureDefinition/pharmacological-therapy" ]
      },
      "identifier": [ {
        "system": "https://mein.krankenhaus.de/fhir/NamingSystem/medicationstatementId",
        "value": "99169ad011a0a9f3ddcfddcd8f11a44970969f4df38cf429374b45b6b926c988"
      } ],
      "status": "active",
      "medicationCodeableConcept": {
        "coding": [ {
          "system": "http://fhir.de/CodeSystem/dimdi/atc",
          "code": "S01AD05"
        }, {
          "system": "http://snomed.info/sct",
          "code": "768865007"
        } ]
      },
      "subject": {
        "reference": "Patient/c48379323faf3a200ae9b56bcb1c2cc800089882f9227e65ddcb4ba61b258c2d"
      },
      "effectiveDateTime": "2020-06-02T14:43:00+00:00"
    },
    "request": {
      "method": "POST",
      "url": "MedicationStatement",
      "ifNoneExist": "identifier=https://mein.krankenhaus.de/fhir/NamingSystem/medicationstatementId|4d25a19547d1695fb798b7bf1ae61aa2f10c646382247eb363e32a7850c1db53"
    }
  }, {
    "fullUrl": "MedicationStatement/d3b08bca5fcf4c6ca0e25e40a538e9787e6a875df1302e163daca26e3046b4ad",
    "resource": {
      "resourceType": "MedicationStatement",
      "meta": {
        "profile": [ "https://www.netzwerk-universitaetsmedizin.de/fhir/StructureDefinition/pharmacological-therapy" ]
      },
      "identifier": [ {
        "system": "https://mein.krankenhaus.de/fhir/NamingSystem/medicationstatementId",
        "value": "2f5fe2d266fee4feaf444f20221289877e278b6a64e672405ce847f7911fbaae"
      } ],
      "status": "unknown",
      "medicationCodeableConcept": {
        "coding": [ {
          "system": "http://fhir.de/CodeSystem/dimdi/atc",
          "code": "A11CC06"
        }, {
          "system": "http://snomed.info/sct",
          "code": "88519001"
        } ]
      },
      "subject": {
        "reference": "Patient/c48379323faf3a200ae9b56bcb1c2cc800089882f9227e65ddcb4ba61b258c2d"
      },
      "effectiveDateTime": "2020-06-02T14:43:00+00:00"
    },
    "request": {
      "method": "POST",
      "url": "MedicationStatement",
      "ifNoneExist": "identifier=https://mein.krankenhaus.de/fhir/NamingSystem/medicationstatementId|d3b08bca5fcf4c6ca0e25e40a538e9787e6a875df1302e163daca26e3046b4ad"
    }
  }, {
    "fullUrl": "MedicationStatement/289eb9c510d2f6822a2f223e47b4aa630b4ed7041a9dc09346ec6b030672f461",
    "resource": {
      "resourceType": "MedicationStatement",
      "meta": {
        "profile": [ "https://www.netzwerk-universitaetsmedizin.de/fhir/StructureDefinition/pharmacological-therapy" ]
      },
      "identifier": [ {
        "system": "https://mein.krankenhaus.de/fhir/NamingSystem/medicationstatementId",
        "value": "ebf3ea0eb620c26a2ba9aa95f02f46c58e702882b17da37d2792b03dc2877500"
      } ],
      "status": "not-taken",
      "medicationCodeableConcept": {
        "coding": [ {
          "system": "http://fhir.de/CodeSystem/dimdi/atc",
          "code": "A12CB"
        }, {
          "system": "http://snomed.info/sct",
          "code": "764877006"
        } ]
      },
      "subject": {
        "reference": "Patient/c48379323faf3a200ae9b56bcb1c2cc800089882f9227e65ddcb4ba61b258c2d"
      },
      "effectiveDateTime": "2020-06-02T14:43:00+00:00"
    },
    "request": {
      "method": "POST",
      "url": "MedicationStatement",
      "ifNoneExist": "identifier=https://mein.krankenhaus.de/fhir/NamingSystem/medicationstatementId|289eb9c510d2f6822a2f223e47b4aa630b4ed7041a9dc09346ec6b030672f461"
    }
  }, {
    "fullUrl": "MedicationStatement/4ba5b126eba151d0efe16df7a5d3bdecd30bc2ad1fef7197126f301951de37d2",
    "resource": {
      "resourceType": "MedicationStatement",
      "meta": {
        "profile": [ "https://www.netzwerk-universitaetsmedizin.de/fhir/StructureDefinition/pharmacological-therapy" ]
      },
      "identifier": [ {
        "system": "https://mein.krankenhaus.de/fhir/NamingSystem/medicationstatementId",
        "value": "46830011dc5f9be6534fbb295bc19c6f39e1e823d2d9d3bea3df107989ff7906"
      } ],
      "status": "not-taken",
      "medicationCodeableConcept": {
        "coding": [ {
          "system": "http://snomed.info/sct",
          "code": "41549009"
        } ],
        "text": "ACE inhibitors"
      },
      "subject": {
        "reference": "Patient/c48379323faf3a200ae9b56bcb1c2cc800089882f9227e65ddcb4ba61b258c2d"
      },
      "effectiveDateTime": "2020-06-02T14:43:00+00:00"
    },
    "request": {
      "method": "POST",
      "url": "MedicationStatement",
      "ifNoneExist": "identifier=https://mein.krankenhaus.de/fhir/NamingSystem/medicationstatementId|4ba5b126eba151d0efe16df7a5d3bdecd30bc2ad1fef7197126f301951de37d2"
    }
  }, {
    "fullUrl": "MedicationStatement/3674cb1f90cb544c9687d09de89fc97a47f144feba2a8a1c6acd6d97f24af9b7",
    "resource": {
      "resourceType": "MedicationStatement",
      "meta": {
        "profile": [ "https://www.netzwerk-universitaetsmedizin.de/fhir/StructureDefinition/pharmacological-therapy" ]
      },
      "identifier": [ {
        "system": "https://mein.krankenhaus.de/fhir/NamingSystem/medicationstatementId",
        "value": "cea86c6bced684486dc2fa2ab47a7a8dba85bd996a4d97cf55a6aac61ea8b6ad"
      } ],
      "status": "active",
      "medicationCodeableConcept": {
        "coding": [ {
          "system": "http://snomed.info/sct",
          "code": "333710000"
        } ],
        "text": "immunoglobulins"
      },
      "subject": {
        "reference": "Patient/c48379323faf3a200ae9b56bcb1c2cc800089882f9227e65ddcb4ba61b258c2d"
      },
      "effectiveDateTime": "2020-06-02T14:43:00+00:00"
    },
    "request": {
      "method": "POST",
      "url": "MedicationStatement",
      "ifNoneExist": "identifier=https://mein.krankenhaus.de/fhir/NamingSystem/medicationstatementId|3674cb1f90cb544c9687d09de89fc97a47f144feba2a8a1c6acd6d97f24af9b7"
    }
  }, {
    "fullUrl": "Observation/9b98826a2c9585c0f46fd0e803caaa6d1e5cbed6fe7178841e18f2b4eb5a4d82",
    "resource": {
      "resourceType": "Observation",
      "meta": {
        "profile": [ "https://www.netzwerk-universitaetsmedizin.de/fhir/StructureDefinition/oxygen-partial-pressure" ]
      },
      "identifier": [ {
        "type": {
          "coding": [ {
            "system": "http://terminology.hl7.org/CodeSystem/v2-0203",
            "code": "OBI",
            "display": "Observation Instance Identifier"
          } ]
        },
        "system": "https://mein.krankenhaus.de/fhir/NamingSystem/observationId",
        "value": "db11ea14b4fad78cf66368911b4da2ab3eed20736a601c9952ec0597af83878d",
        "assigner": {
          "reference": "Organization/3a4f3433bce81181bad2d8e0b8fafccf7dc800bc06f29be73dcb38b750a48f9a"
        }
      } ],
      "status": "final",
      "category": [ {
        "coding": [ {
          "system": "http://terminology.hl7.org/CodeSystem/observation-category",
          "code": "laboratory",
          "display": "Laboratory"
        }, {
          "system": "http://loinc.org",
          "code": "26436-6",
          "display": "Laboratory studies (set)"
        }, {
          "system": "http://loinc.org",
          "code": "18767-4",
          "display": "Blood gas studies (set)"
        } ]
      } ],
      "code": {
        "coding": [ {
          "system": "http://loinc.org",
          "code": "11557-8"
        } ],
        "text": "Oxygen [Partial pressure] in blood"
      },
      "subject": {
        "reference": "Patient/c48379323faf3a200ae9b56bcb1c2cc800089882f9227e65ddcb4ba61b258c2d"
      },
      "encounter": {
        "reference": "Encounter/184ddffacaca9034f9f1cb4ae18ffe2306480c502a98c52500388e8b96542598"
      },
      "effectiveDateTime": "2020-05-13T21:58:00+00:00",
      "valueQuantity": {
        "value": 197,
        "unit": "mmHg",
        "system": "http://unitsofmeasure.org",
        "code": "mm[Hg]"
      }
    },
    "request": {
      "method": "POST",
      "url": "Observation",
      "ifNoneExist": "identifier=https://mein.krankenhaus.de/fhir/NamingSystem/observationId|9b98826a2c9585c0f46fd0e803caaa6d1e5cbed6fe7178841e18f2b4eb5a4d82"
    }
  }, {
    "fullUrl": "Observation/9eb533cd7c3ae735decd86b4548d5544d75810e42fcd4cef0d8dbfc2d0aa5ac7",
    "resource": {
      "resourceType": "Observation",
      "meta": {
        "profile": [ "https://www.netzwerk-universitaetsmedizin.de/fhir/StructureDefinition/inhaled-oxygen-concentration" ]
      },
      "identifier": [ {
        "type": {
          "coding": [ {
            "system": "http://terminology.hl7.org/CodeSystem/v2-0203",
            "code": "OBI",
            "display": "Observation Instance Identifier"
          } ]
        },
        "system": "https://mein.krankenhaus.de/fhir/NamingSystem/observationId",
        "value": "26fe134fb0b6d276f0bff53dddc15602494cec5080a0e4cb1d2e3457eb7b5b1a",
        "assigner": {
          "reference": "Organization/3a4f3433bce81181bad2d8e0b8fafccf7dc800bc06f29be73dcb38b750a48f9a"
        }
      } ],
      "status": "final",
      "category": [ {
        "coding": [ {
          "system": "http://terminology.hl7.org/CodeSystem/observation-category",
          "code": "laboratory",
          "display": "Laboratory"
        }, {
          "system": "http://loinc.org",
          "code": "26436-6",
          "display": "Laboratory studies (set)"
        }, {
          "system": "http://loinc.org",
          "code": "18767-4",
          "display": "Blood gas studies (set)"
        } ]
      } ],
      "code": {
        "coding": [ {
          "system": "http://loinc.org",
          "code": "3150-0"
        }, {
          "system": "http://snomed.info/sct",
          "code": "250774007"
        } ],
        "text": "Oxygen [Partial pressure] in blood"
      },
      "subject": {
        "reference": "Patient/c48379323faf3a200ae9b56bcb1c2cc800089882f9227e65ddcb4ba61b258c2d"
      },
      "encounter": {
        "reference": "Encounter/184ddffacaca9034f9f1cb4ae18ffe2306480c502a98c52500388e8b96542598"
      },
      "effectiveDateTime": "2020-05-13T21:58:00+00:00",
      "valueQuantity": {
        "value": 85.06417835638979,
        "unit": "%",
        "system": "http://unitsofmeasure.org",
        "code": "%"
      }
    },
    "request": {
      "method": "POST",
      "url": "Observation",
      "ifNoneExist": "identifier=https://mein.krankenhaus.de/fhir/NamingSystem/observationId|9eb533cd7c3ae735decd86b4548d5544d75810e42fcd4cef0d8dbfc2d0aa5ac7"
    }
  }, {
    "fullUrl": "Observation/bd8460be69d3bc70b92f8fb3f8282226ab28641a302805b7bf2f4743fb9c3b4d",
    "resource": {
      "resourceType": "Observation",
      "meta": {
        "profile": [ "https://www.netzwerk-universitaetsmedizin.de/fhir/StructureDefinition/pH" ]
      },
      "identifier": [ {
        "type": {
          "coding": [ {
            "system": "http://terminology.hl7.org/CodeSystem/v2-0203",
            "code": "OBI",
            "display": "Observation Instance Identifier"
          } ]
        },
        "system": "https://mein.krankenhaus.de/fhir/NamingSystem/observationId",
        "value": "53fc4e548d988e54d4d2bf51ea8bb438fb85efbf48e87284e99be0253270bce6",
        "assigner": {
          "reference": "Organization/3a4f3433bce81181bad2d8e0b8fafccf7dc800bc06f29be73dcb38b750a48f9a"
        }
      } ],
      "status": "final",
      "category": [ {
        "coding": [ {
          "system": "http://terminology.hl7.org/CodeSystem/observation-category",
          "code": "laboratory",
          "display": "Laboratory"
        }, {
          "system": "http://loinc.org",
          "code": "26436-6",
          "display": "Laboratory studies (set)"
        }, {
          "system": "http://loinc.org",
          "code": "18767-4",
          "display": "Blood gas studies (set)"
        } ]
      } ],
      "code": {
        "coding": [ {
          "system": "http://loinc.org",
          "code": "11558-4"
        } ],
        "text": "pH of Blood"
      },
      "subject": {
        "reference": "Patient/c48379323faf3a200ae9b56bcb1c2cc800089882f9227e65ddcb4ba61b258c2d"
      },
      "encounter": {
        "reference": "Encounter/184ddffacaca9034f9f1cb4ae18ffe2306480c502a98c52500388e8b96542598"
      },
      "effectiveDateTime": "2020-05-13T21:58:00+00:00",
      "valueQuantity": {
        "value": 4.487753383141732,
        "unit": "pH",
        "system": "http://unitsofmeasure.org",
        "code": "[pH]"
      }
    },
    "request": {
      "method": "POST",
      "url": "Observation",
      "ifNoneExist": "identifier=https://mein.krankenhaus.de/fhir/NamingSystem/observationId|bd8460be69d3bc70b92f8fb3f8282226ab28641a302805b7bf2f4743fb9c3b4d"
    }
  }, {
    "fullUrl": "Observation/b72a3b741f93d677e06f02c51c02fce5005be3531683e9ddd3815e1fb9b212d8",
    "resource": {
      "resourceType": "Observation",
      "meta": {
        "profile": [ "https://www.netzwerk-universitaetsmedizin.de/fhir/StructureDefinition/sofa-score" ]
      },
      "identifier": [ {
        "type": {
          "coding": [ {
            "system": "http://terminology.hl7.org/CodeSystem/v2-0203",
            "code": "OBI",
            "display": "Observation Instance Identifier"
          } ]
        },
        "system": "https://mein.krankenhaus.de/fhir/NamingSystem/observationId",
        "value": "2a624b3265cca74fa1bf73f070dcb8e1deec6d49a13e7531b9d4cf4e6ed993ac",
        "assigner": {
          "reference": "Organization/3a4f3433bce81181bad2d8e0b8fafccf7dc800bc06f29be73dcb38b750a48f9a"
        }
      } ],
      "status": "final",
      "category": [ {
        "coding": [ {
          "system": "http://terminology.hl7.org/CodeSystem/observation-category",
          "code": "survey",
          "display": "Survey"
        } ]
      } ],
      "code": {
        "coding": [ {
          "system": "https://www.netzwerk-universitaetsmedizin.de/fhir/CodeSystem/ecrf-parameter-codes",
          "code": "06",
          "display": "SOFA-Score"
        } ],
        "text": "Sepsis-related organ failure assessment score"
      },
      "subject": {
        "reference": "Patient/c48379323faf3a200ae9b56bcb1c2cc800089882f9227e65ddcb4ba61b258c2d"
      },
      "encounter": {
        "reference": "Encounter/184ddffacaca9034f9f1cb4ae18ffe2306480c502a98c52500388e8b96542598"
      },
      "effectiveDateTime": "2020-05-13T21:58:00+00:00",
      "valueInteger": 11,
      "component": [ {
        "code": {
          "coding": [ {
            "system": "https://www.netzwerk-universitaetsmedizin.de/fhir/CodeSystem/sofa-score",
            "code": "resp",
            "display": "Respiratory system"
          } ],
          "text": "SOFA Respiratory system scoring category"
        },
        "valueCodeableConcept": {
          "coding": [ {
            "system": "https://www.netzwerk-universitaetsmedizin.de/fhir/CodeSystem/sofa-score",
            "code": "resp4",
            "display": "Respiratory system SOFA score 4"
          } ],
          "text": "PaO2/FiO2 [mmHg (kPa)] < 100 (13.3) and mechanically ventilated"
        }
      }, {
        "code": {
          "coding": [ {
            "system": "https://www.netzwerk-universitaetsmedizin.de/fhir/CodeSystem/sofa-score",
            "code": "ns",
            "display": "Nervous system"
          } ],
          "text": "SOFA Nervous system scoring category"
        },
        "valueCodeableConcept": {
          "coding": [ {
            "system": "https://www.netzwerk-universitaetsmedizin.de/fhir/CodeSystem/sofa-score",
            "code": "ns2",
            "display": "Nervous system SOFA score 2"
          } ],
          "text": "Glasgow Coma Scale (GCS) 10-12"
        }
      }, {
        "code": {
          "coding": [ {
            "system": "https://www.netzwerk-universitaetsmedizin.de/fhir/CodeSystem/sofa-score",
            "code": "cvs",
            "display": "Cardiovascular system"
          } ],
          "text": "SOFA Cardiovascular system scoring category"
        },
        "valueCodeableConcept": {
          "coding": [ {
            "system": "https://www.netzwerk-universitaetsmedizin.de/fhir/CodeSystem/sofa-score",
            "code": "cvs2",
            "display": "Cardiovascular system SOFA score 2"
          } ],
          "text": "Administration of dopamine  5 ug/kg/min or dobutamine (any dose)"
        }
      }, {
        "code": {
          "coding": [ {
            "system": "https://www.netzwerk-universitaetsmedizin.de/fhir/CodeSystem/sofa-score",
            "code": "liv",
            "display": "Liver"
          } ],
          "text": "SOFA Liver scoring category"
        },
        "valueCodeableConcept": {
          "coding": [ {
            "system": "https://www.netzwerk-universitaetsmedizin.de/fhir/CodeSystem/sofa-score",
            "code": "liv3",
            "display": "Liver SOFA score 3"
          } ],
          "text": "Bilirubin (mg/dl) [umol/L] 6.0-11.9 [102-204]"
        }
      }, {
        "code": {
          "coding": [ {
            "system": "https://www.netzwerk-universitaetsmedizin.de/fhir/CodeSystem/sofa-score",
            "code": "coa",
            "display": "Coagulation"
          } ],
          "text": "SOFA Coagulation scoring category"
        },
        "valueCodeableConcept": {
          "coding": [ {
            "system": "https://www.netzwerk-universitaetsmedizin.de/fhir/CodeSystem/sofa-score",
            "code": "coa0",
            "display": "Coagulation SOFA score 0"
          } ],
          "text": "Platelets10^3/ul ? 150"
        }
      } ]
    },
    "request": {
      "method": "POST",
      "url": "Observation",
      "ifNoneExist": "identifier=https://mein.krankenhaus.de/fhir/NamingSystem/observationId|b72a3b741f93d677e06f02c51c02fce5005be3531683e9ddd3815e1fb9b212d8"
    }
  }, {
    "fullUrl": "Observation/594f869c2657467892780f60a2a2c0976b45ffd776126c412e0ae3bb67a29092",
    "resource": {
      "resourceType": "Observation",
      "meta": {
        "profile": [ "https://www.netzwerk-universitaetsmedizin.de/fhir/StructureDefinition/respiratory-rate" ]
      },
      "identifier": [ {
        "type": {
          "coding": [ {
            "system": "http://terminology.hl7.org/CodeSystem/v2-0203",
            "code": "OBI",
            "display": "Observation Instance Identifier"
          } ]
        },
        "system": "https://mein.krankenhaus.de/fhir/NamingSystem/observationId",
        "value": "6750b90c89328c4333f692285ee272525fd9cc6547d0705758d1717ccf4485cb",
        "assigner": {
          "reference": "Organization/3a4f3433bce81181bad2d8e0b8fafccf7dc800bc06f29be73dcb38b750a48f9a"
        }
      } ],
      "status": "final",
      "category": [ {
        "coding": [ {
          "system": "http://terminology.hl7.org/CodeSystem/observation-category",
          "code": "vital-signs",
          "display": "Vital Signs"
        } ]
      } ],
      "code": {
        "coding": [ {
          "system": "http://loinc.org",
          "code": "9279-1"
        }, {
          "system": "http://snomed.info/sct",
          "code": "86290005"
        } ],
        "text": "Respiratory rate"
      },
      "subject": {
        "reference": "Patient/c48379323faf3a200ae9b56bcb1c2cc800089882f9227e65ddcb4ba61b258c2d"
      },
      "encounter": {
        "reference": "Encounter/184ddffacaca9034f9f1cb4ae18ffe2306480c502a98c52500388e8b96542598"
      },
      "effectiveDateTime": "2020-05-13T21:58:00+00:00",
      "valueQuantity": {
        "value": 76,
        "unit": "per minute",
        "system": "http://unitsofmeasure.org",
        "code": "/min"
      }
    },
    "request": {
      "method": "POST",
      "url": "Observation",
      "ifNoneExist": "identifier=https://mein.krankenhaus.de/fhir/NamingSystem/observationId|594f869c2657467892780f60a2a2c0976b45ffd776126c412e0ae3bb67a29092"
    }
  }, {
    "fullUrl": "Observation/c58e83bf3b8b13cbe6a3443fb8ed5fe71ea8a65e649cd641f3e1cd2a5e558ae1",
    "resource": {
      "resourceType": "Observation",
      "meta": {
        "profile": [ "https://www.netzwerk-universitaetsmedizin.de/fhir/StructureDefinition/blood-pressure" ]
      },
      "identifier": [ {
        "type": {
          "coding": [ {
            "system": "http://terminology.hl7.org/CodeSystem/v2-0203",
            "code": "OBI",
            "display": "Observation Instance Identifier"
          } ]
        },
        "system": "https://mein.krankenhaus.de/fhir/NamingSystem/observationId",
        "value": "9c022f47f78268d87425792f25d936873623d33b1e1d48f2a58020c110c7f803",
        "assigner": {
          "reference": "Organization/3a4f3433bce81181bad2d8e0b8fafccf7dc800bc06f29be73dcb38b750a48f9a"
        }
      } ],
      "status": "final",
      "category": [ {
        "coding": [ {
          "system": "http://terminology.hl7.org/CodeSystem/observation-category",
          "code": "vital-signs",
          "display": "Vital Signs"
        } ]
      } ],
      "code": {
        "coding": [ {
          "system": "http://loinc.org",
          "code": "85354-9",
          "display": "Blood pressure panel with all children optional"
        }, {
          "system": "http://snomed.info/sct",
          "code": "75367002",
          "display": "Blood pressure (observable entity)"
        } ],
        "text": "Blood pressure"
      },
      "subject": {
        "reference": "Patient/c48379323faf3a200ae9b56bcb1c2cc800089882f9227e65ddcb4ba61b258c2d"
      },
      "encounter": {
        "reference": "Encounter/184ddffacaca9034f9f1cb4ae18ffe2306480c502a98c52500388e8b96542598"
      },
      "effectiveDateTime": "2020-05-13T21:58:00+00:00",
      "component": [ {
        "code": {
          "coding": [ {
            "system": "http://loinc.org",
            "code": "8480-6"
          }, {
            "system": "http://snomed.info/sct",
            "code": "271649006"
          } ],
          "text": "Systolic blood pressure"
        },
        "valueQuantity": {
          "value": 164,
          "unit": "mmHg",
          "system": "http://unitsofmeasure.org",
          "code": "mm[Hg]"
        }
      }, {
        "code": {
          "coding": [ {
            "system": "http://loinc.org",
            "code": "8462-4"
          }, {
            "system": "http://snomed.info/sct",
            "code": "271650006"
          } ],
          "text": "Diastolic blood pressure"
        },
        "valueQuantity": {
          "value": 168,
          "unit": "mmHg",
          "system": "http://unitsofmeasure.org",
          "code": "mm[Hg]"
        }
      } ]
    },
    "request": {
      "method": "POST",
      "url": "Observation",
      "ifNoneExist": "identifier=https://mein.krankenhaus.de/fhir/NamingSystem/observationId|c58e83bf3b8b13cbe6a3443fb8ed5fe71ea8a65e649cd641f3e1cd2a5e558ae1"
    }
  }, {
    "fullUrl": "Observation/f07e9aaac420aa0f0598c591657735e1ca49b9b907975f4fcf46189e9e623491",
    "resource": {
      "resourceType": "Observation",
      "meta": {
        "profile": [ "https://www.netzwerk-universitaetsmedizin.de/fhir/StructureDefinition/heart-rate" ]
      },
      "identifier": [ {
        "type": {
          "coding": [ {
            "system": "http://terminology.hl7.org/CodeSystem/v2-0203",
            "code": "OBI",
            "display": "Observation Instance Identifier"
          } ]
        },
        "system": "https://mein.krankenhaus.de/fhir/NamingSystem/observationId",
        "value": "fac88fe447671a095b3c56a69f8e05c2d9eb09ed3148be22645a468b4f84bd0b",
        "assigner": {
          "reference": "Organization/3a4f3433bce81181bad2d8e0b8fafccf7dc800bc06f29be73dcb38b750a48f9a"
        }
      } ],
      "status": "final",
      "category": [ {
        "coding": [ {
          "system": "http://terminology.hl7.org/CodeSystem/observation-category",
          "code": "vital-signs",
          "display": "Vital Signs"
        } ]
      } ],
      "code": {
        "coding": [ {
          "system": "http://loinc.org",
          "code": "8867-4"
        }, {
          "system": "http://snomed.info/sct",
          "code": "364075005"
        } ],
        "text": "Heart rate"
      },
      "subject": {
        "reference": "Patient/c48379323faf3a200ae9b56bcb1c2cc800089882f9227e65ddcb4ba61b258c2d"
      },
      "encounter": {
        "reference": "Encounter/184ddffacaca9034f9f1cb4ae18ffe2306480c502a98c52500388e8b96542598"
      },
      "effectiveDateTime": "2020-05-13T21:58:00+00:00",
      "valueQuantity": {
        "value": 133,
        "unit": "per minute",
        "system": "http://unitsofmeasure.org",
        "code": "/min"
      }
    },
    "request": {
      "method": "POST",
      "url": "Observation",
      "ifNoneExist": "identifier=https://mein.krankenhaus.de/fhir/NamingSystem/observationId|f07e9aaac420aa0f0598c591657735e1ca49b9b907975f4fcf46189e9e623491"
    }
  }, {
    "fullUrl": "Observation/5d8f0a799311e8d246c808a51efb28dd588740159ded38f72081341e15f626c4",
    "resource": {
      "resourceType": "Observation",
      "meta": {
        "profile": [ "https://www.netzwerk-universitaetsmedizin.de/fhir/StructureDefinition/body-temperature" ]
      },
      "identifier": [ {
        "type": {
          "coding": [ {
            "system": "http://terminology.hl7.org/CodeSystem/v2-0203",
            "code": "OBI",
            "display": "Observation Instance Identifier"
          } ]
        },
        "system": "https://mein.krankenhaus.de/fhir/NamingSystem/observationId",
        "value": "bbf3599c726af116ad11d8d26658cb3de9607b5f3c3eef9b71683c24a9535303",
        "assigner": {
          "reference": "Organization/3a4f3433bce81181bad2d8e0b8fafccf7dc800bc06f29be73dcb38b750a48f9a"
        }
      } ],
      "status": "final",
      "category": [ {
        "coding": [ {
          "system": "http://terminology.hl7.org/CodeSystem/observation-category",
          "code": "vital-signs",
          "display": "Vital Signs"
        } ]
      } ],
      "code": {
        "coding": [ {
          "system": "http://loinc.org",
          "code": "8310-5"
        }, {
          "system": "http://snomed.info/sct",
          "code": "386725007"
        } ],
        "text": "Body temperature"
      },
      "subject": {
        "reference": "Patient/c48379323faf3a200ae9b56bcb1c2cc800089882f9227e65ddcb4ba61b258c2d"
      },
      "encounter": {
        "reference": "Encounter/184ddffacaca9034f9f1cb4ae18ffe2306480c502a98c52500388e8b96542598"
      },
      "effectiveDateTime": "2020-05-13T21:58:00+00:00",
      "valueQuantity": {
        "value": 43.64837996339017,
        "unit": "C",
        "system": "http://unitsofmeasure.org",
        "code": "Cel"
      }
    },
    "request": {
      "method": "POST",
      "url": "Observation",
      "ifNoneExist": "identifier=https://mein.krankenhaus.de/fhir/NamingSystem/observationId|5d8f0a799311e8d246c808a51efb28dd588740159ded38f72081341e15f626c4"
    }
  }, {
    "fullUrl": "Observation/b6d580a107e09f7074b496d0422196153d6bc389a42eb94ebd648be0eba66eec",
    "resource": {
      "resourceType": "Observation",
      "meta": {
        "profile": [ "https://www.netzwerk-universitaetsmedizin.de/fhir/StructureDefinition/oxygen-saturation" ]
      },
      "identifier": [ {
        "type": {
          "coding": [ {
            "system": "http://terminology.hl7.org/CodeSystem/v2-0203",
            "code": "OBI",
            "display": "Observation Instance Identifier"
          } ]
        },
        "system": "https://mein.krankenhaus.de/fhir/NamingSystem/observationId",
        "value": "8e8c3d4f6403c26ea85046bc2d04c8121f699a55521b33b91bb40281979039da",
        "assigner": {
          "reference": "Organization/3a4f3433bce81181bad2d8e0b8fafccf7dc800bc06f29be73dcb38b750a48f9a"
        }
      } ],
      "status": "final",
      "category": [ {
        "coding": [ {
          "system": "http://terminology.hl7.org/CodeSystem/observation-category",
          "code": "vital-signs",
          "display": "Vital Signs"
        } ]
      } ],
      "code": {
        "coding": [ {
          "system": "http://loinc.org",
          "code": "2708-6"
        }, {
          "system": "http://loinc.org",
          "code": "59408-5"
        }, {
          "system": "http://loinc.org",
          "code": "20564-1"
        }, {
          "system": "http://snomed.info/sct",
          "code": "431314004"
        } ],
        "text": "Oxygen saturation in Arterial blood"
      },
      "subject": {
        "reference": "Patient/c48379323faf3a200ae9b56bcb1c2cc800089882f9227e65ddcb4ba61b258c2d"
      },
      "encounter": {
        "reference": "Encounter/184ddffacaca9034f9f1cb4ae18ffe2306480c502a98c52500388e8b96542598"
      },
      "effectiveDateTime": "2020-05-13T21:58:00+00:00",
      "valueQuantity": {
        "value": 48,
        "unit": "%",
        "system": "http://unitsofmeasure.org",
        "code": "%"
      }
    },
    "request": {
      "method": "POST",
      "url": "Observation",
      "ifNoneExist": "identifier=https://mein.krankenhaus.de/fhir/NamingSystem/observationId|b6d580a107e09f7074b496d0422196153d6bc389a42eb94ebd648be0eba66eec"
    }
  }, {
    "fullUrl": "Observation/0bdfdd2f52205051bec9eda06276d1a44ecd58025183950951f47093b24194bc",
    "resource": {
      "resourceType": "Observation",
      "meta": {
        "profile": [ "https://www.netzwerk-universitaetsmedizin.de/fhir/StructureDefinition/carbon-dioxide-partial-pressure" ]
      },
      "identifier": [ {
        "type": {
          "coding": [ {
            "system": "http://terminology.hl7.org/CodeSystem/v2-0203",
            "code": "OBI",
            "display": "Observation Instance Identifier"
          } ]
        },
        "system": "https://mein.krankenhaus.de/fhir/NamingSystem/observationId",
        "value": "aa2881fbd6ba00fd3f042242bb710db5d0bcba5f5ad69cde221b1c275997450c",
        "assigner": {
          "reference": "Organization/3a4f3433bce81181bad2d8e0b8fafccf7dc800bc06f29be73dcb38b750a48f9a"
        }
      } ],
      "status": "final",
      "category": [ {
        "coding": [ {
          "system": "http://terminology.hl7.org/CodeSystem/observation-category",
          "code": "laboratory",
          "display": "Laboratory"
        }, {
          "system": "http://loinc.org",
          "code": "26436-6",
          "display": "Laboratory studies (set)"
        }, {
          "system": "http://loinc.org",
          "code": "18767-4",
          "display": "Blood gas studies (set)"
        } ]
      } ],
      "code": {
        "coding": [ {
          "system": "http://loinc.org",
          "code": "11557-6"
        } ],
        "text": "Carbon dioxide [Partial pressure] in blood"
      },
      "subject": {
        "reference": "Patient/c48379323faf3a200ae9b56bcb1c2cc800089882f9227e65ddcb4ba61b258c2d"
      },
      "encounter": {
        "reference": "Encounter/184ddffacaca9034f9f1cb4ae18ffe2306480c502a98c52500388e8b96542598"
      },
      "effectiveDateTime": "2020-10-25T22:50:00+00:00",
      "valueQuantity": {
        "value": 6,
        "unit": "mmHg",
        "system": "http://unitsofmeasure.org",
        "code": "mm[Hg]"
      }
    },
    "request": {
      "method": "POST",
      "url": "Observation",
      "ifNoneExist": "identifier=https://mein.krankenhaus.de/fhir/NamingSystem/observationId|0bdfdd2f52205051bec9eda06276d1a44ecd58025183950951f47093b24194bc"
    }
  }, {
    "fullUrl": "Observation/2c5e3c294d5261cdd5bc4c92e93ded6377606a4dc67cb55cba36eedf425f7d35",
    "resource": {
      "resourceType": "Observation",
      "meta": {
        "profile": [ "https://www.netzwerk-universitaetsmedizin.de/fhir/StructureDefinition/oxygen-partial-pressure" ]
      },
      "identifier": [ {
        "type": {
          "coding": [ {
            "system": "http://terminology.hl7.org/CodeSystem/v2-0203",
            "code": "OBI",
            "display": "Observation Instance Identifier"
          } ]
        },
        "system": "https://mein.krankenhaus.de/fhir/NamingSystem/observationId",
        "value": "d9fc8d16f21d3e54b3effc480853bb9827ebcb724fd0a10cb5fbaa5d8d861e78",
        "assigner": {
          "reference": "Organization/3a4f3433bce81181bad2d8e0b8fafccf7dc800bc06f29be73dcb38b750a48f9a"
        }
      } ],
      "status": "final",
      "category": [ {
        "coding": [ {
          "system": "http://terminology.hl7.org/CodeSystem/observation-category",
          "code": "laboratory",
          "display": "Laboratory"
        }, {
          "system": "http://loinc.org",
          "code": "26436-6",
          "display": "Laboratory studies (set)"
        }, {
          "system": "http://loinc.org",
          "code": "18767-4",
          "display": "Blood gas studies (set)"
        } ]
      } ],
      "code": {
        "coding": [ {
          "system": "http://loinc.org",
          "code": "11557-8"
        } ],
        "text": "Oxygen [Partial pressure] in blood"
      },
      "subject": {
        "reference": "Patient/c48379323faf3a200ae9b56bcb1c2cc800089882f9227e65ddcb4ba61b258c2d"
      },
      "encounter": {
        "reference": "Encounter/184ddffacaca9034f9f1cb4ae18ffe2306480c502a98c52500388e8b96542598"
      },
      "effectiveDateTime": "2020-10-25T22:50:00+00:00",
      "valueQuantity": {
        "value": 38,
        "unit": "mmHg",
        "system": "http://unitsofmeasure.org",
        "code": "mm[Hg]"
      }
    },
    "request": {
      "method": "POST",
      "url": "Observation",
      "ifNoneExist": "identifier=https://mein.krankenhaus.de/fhir/NamingSystem/observationId|2c5e3c294d5261cdd5bc4c92e93ded6377606a4dc67cb55cba36eedf425f7d35"
    }
  }, {
    "fullUrl": "Observation/2617c18ab030e417da7b528240850d10afec5409d4fc7a7493785436836f07da",
    "resource": {
      "resourceType": "Observation",
      "meta": {
        "profile": [ "https://www.netzwerk-universitaetsmedizin.de/fhir/StructureDefinition/inhaled-oxygen-concentration" ]
      },
      "identifier": [ {
        "type": {
          "coding": [ {
            "system": "http://terminology.hl7.org/CodeSystem/v2-0203",
            "code": "OBI",
            "display": "Observation Instance Identifier"
          } ]
        },
        "system": "https://mein.krankenhaus.de/fhir/NamingSystem/observationId",
        "value": "3499d0bfa73173c817d428db06e181b6f8490f3e853e476d7068b0454579cbcb",
        "assigner": {
          "reference": "Organization/3a4f3433bce81181bad2d8e0b8fafccf7dc800bc06f29be73dcb38b750a48f9a"
        }
      } ],
      "status": "final",
      "category": [ {
        "coding": [ {
          "system": "http://terminology.hl7.org/CodeSystem/observation-category",
          "code": "laboratory",
          "display": "Laboratory"
        }, {
          "system": "http://loinc.org",
          "code": "26436-6",
          "display": "Laboratory studies (set)"
        }, {
          "system": "http://loinc.org",
          "code": "18767-4",
          "display": "Blood gas studies (set)"
        } ]
      } ],
      "code": {
        "coding": [ {
          "system": "http://loinc.org",
          "code": "3150-0"
        }, {
          "system": "http://snomed.info/sct",
          "code": "250774007"
        } ],
        "text": "Oxygen [Partial pressure] in blood"
      },
      "subject": {
        "reference": "Patient/c48379323faf3a200ae9b56bcb1c2cc800089882f9227e65ddcb4ba61b258c2d"
      },
      "encounter": {
        "reference": "Encounter/184ddffacaca9034f9f1cb4ae18ffe2306480c502a98c52500388e8b96542598"
      },
      "effectiveDateTime": "2020-10-25T22:50:00+00:00",
      "valueQuantity": {
        "value": 3.935887305306629,
        "unit": "%",
        "system": "http://unitsofmeasure.org",
        "code": "%"
      }
    },
    "request": {
      "method": "POST",
      "url": "Observation",
      "ifNoneExist": "identifier=https://mein.krankenhaus.de/fhir/NamingSystem/observationId|2617c18ab030e417da7b528240850d10afec5409d4fc7a7493785436836f07da"
    }
  }, {
    "fullUrl": "Observation/faed9f2457be1e287c2e04352e14eaf8d0c1484da4d7c98c9d474af74899e745",
    "resource": {
      "resourceType": "Observation",
      "meta": {
        "profile": [ "https://www.netzwerk-universitaetsmedizin.de/fhir/StructureDefinition/pH" ]
      },
      "identifier": [ {
        "type": {
          "coding": [ {
            "system": "http://terminology.hl7.org/CodeSystem/v2-0203",
            "code": "OBI",
            "display": "Observation Instance Identifier"
          } ]
        },
        "system": "https://mein.krankenhaus.de/fhir/NamingSystem/observationId",
        "value": "e5e8a8ae634fe4ea66ecf5c051c453b761179889ba42be9fdb7bba2c253b250b",
        "assigner": {
          "reference": "Organization/3a4f3433bce81181bad2d8e0b8fafccf7dc800bc06f29be73dcb38b750a48f9a"
        }
      } ],
      "status": "final",
      "category": [ {
        "coding": [ {
          "system": "http://terminology.hl7.org/CodeSystem/observation-category",
          "code": "laboratory",
          "display": "Laboratory"
        }, {
          "system": "http://loinc.org",
          "code": "26436-6",
          "display": "Laboratory studies (set)"
        }, {
          "system": "http://loinc.org",
          "code": "18767-4",
          "display": "Blood gas studies (set)"
        } ]
      } ],
      "code": {
        "coding": [ {
          "system": "http://loinc.org",
          "code": "11558-4"
        } ],
        "text": "pH of Blood"
      },
      "subject": {
        "reference": "Patient/c48379323faf3a200ae9b56bcb1c2cc800089882f9227e65ddcb4ba61b258c2d"
      },
      "encounter": {
        "reference": "Encounter/184ddffacaca9034f9f1cb4ae18ffe2306480c502a98c52500388e8b96542598"
      },
      "effectiveDateTime": "2020-10-25T22:50:00+00:00",
      "valueQuantity": {
        "value": 8.222305263777244,
        "unit": "pH",
        "system": "http://unitsofmeasure.org",
        "code": "[pH]"
      }
    },
    "request": {
      "method": "POST",
      "url": "Observation",
      "ifNoneExist": "identifier=https://mein.krankenhaus.de/fhir/NamingSystem/observationId|faed9f2457be1e287c2e04352e14eaf8d0c1484da4d7c98c9d474af74899e745"
    }
  }, {
    "fullUrl": "Observation/aedbeb2e21f2b75354b0ec1c4150abe4ac41083918cec93d7c7b75bd4a152dda",
    "resource": {
      "resourceType": "Observation",
      "meta": {
        "profile": [ "https://www.netzwerk-universitaetsmedizin.de/fhir/StructureDefinition/sofa-score" ]
      },
      "identifier": [ {
        "type": {
          "coding": [ {
            "system": "http://terminology.hl7.org/CodeSystem/v2-0203",
            "code": "OBI",
            "display": "Observation Instance Identifier"
          } ]
        },
        "system": "https://mein.krankenhaus.de/fhir/NamingSystem/observationId",
        "value": "ec3c104ef6a15ec9434a40e3e121349a0dd62d5dcd452f314acaf378f55fb867",
        "assigner": {
          "reference": "Organization/3a4f3433bce81181bad2d8e0b8fafccf7dc800bc06f29be73dcb38b750a48f9a"
        }
      } ],
      "status": "final",
      "category": [ {
        "coding": [ {
          "system": "http://terminology.hl7.org/CodeSystem/observation-category",
          "code": "survey",
          "display": "Survey"
        } ]
      } ],
      "code": {
        "coding": [ {
          "system": "https://www.netzwerk-universitaetsmedizin.de/fhir/CodeSystem/ecrf-parameter-codes",
          "code": "06",
          "display": "SOFA-Score"
        } ],
        "text": "Sepsis-related organ failure assessment score"
      },
      "subject": {
        "reference": "Patient/c48379323faf3a200ae9b56bcb1c2cc800089882f9227e65ddcb4ba61b258c2d"
      },
      "encounter": {
        "reference": "Encounter/184ddffacaca9034f9f1cb4ae18ffe2306480c502a98c52500388e8b96542598"
      },
      "effectiveDateTime": "2020-10-25T22:50:00+00:00",
      "valueInteger": 7,
      "component": [ {
        "code": {
          "coding": [ {
            "system": "https://www.netzwerk-universitaetsmedizin.de/fhir/CodeSystem/sofa-score",
            "code": "resp",
            "display": "Respiratory system"
          } ],
          "text": "SOFA Respiratory system scoring category"
        },
        "valueCodeableConcept": {
          "coding": [ {
            "system": "https://www.netzwerk-universitaetsmedizin.de/fhir/CodeSystem/sofa-score",
            "code": "resp2",
            "display": "Respiratory system SOFA score 2"
          } ],
          "text": "PaO2/FiO2 [mmHg (kPa)] < 300 (40)"
        }
      }, {
        "code": {
          "coding": [ {
            "system": "https://www.netzwerk-universitaetsmedizin.de/fhir/CodeSystem/sofa-score",
            "code": "ns",
            "display": "Nervous system"
          } ],
          "text": "SOFA Nervous system scoring category"
        },
        "valueCodeableConcept": {
          "coding": [ {
            "system": "https://www.netzwerk-universitaetsmedizin.de/fhir/CodeSystem/sofa-score",
            "code": "ns3",
            "display": "Nervous system SOFA score 3"
          } ],
          "text": "Glasgow Coma Scale (GCS) 6-9"
        }
      }, {
        "code": {
          "coding": [ {
            "system": "https://www.netzwerk-universitaetsmedizin.de/fhir/CodeSystem/sofa-score",
            "code": "kid",
            "display": "Kidneys"
          } ],
          "text": "SOFA Kidneys scoring category"
        },
        "valueCodeableConcept": {
          "coding": [ {
            "system": "https://www.netzwerk-universitaetsmedizin.de/fhir/CodeSystem/sofa-score",
            "code": "kid2",
            "display": "Kidneys SOFA score 2"
          } ],
          "text": "Creatinine (mg/dl) [?mol/L] (or urine output) 2.0-3.4 [171-299]"
        }
      }, {
        "code": {
          "coding": [ {
            "system": "https://www.netzwerk-universitaetsmedizin.de/fhir/CodeSystem/sofa-score",
            "code": "coa",
            "display": "Coagulation"
          } ],
          "text": "SOFA Coagulation scoring category"
        },
        "valueCodeableConcept": {
          "coding": [ {
            "system": "https://www.netzwerk-universitaetsmedizin.de/fhir/CodeSystem/sofa-score",
            "code": "coa0",
            "display": "Coagulation SOFA score 0"
          } ],
          "text": "Platelets10^3/ul ? 150"
        }
      } ]
    },
    "request": {
      "method": "POST",
      "url": "Observation",
      "ifNoneExist": "identifier=https://mein.krankenhaus.de/fhir/NamingSystem/observationId|aedbeb2e21f2b75354b0ec1c4150abe4ac41083918cec93d7c7b75bd4a152dda"
    }
  }, {
    "fullUrl": "Observation/226e6969f0d8e0e6b8967cb3d223c27587a12cf09008852262661edbf5fbca3b",
    "resource": {
      "resourceType": "Observation",
      "meta": {
        "profile": [ "https://www.netzwerk-universitaetsmedizin.de/fhir/StructureDefinition/respiratory-rate" ]
      },
      "identifier": [ {
        "type": {
          "coding": [ {
            "system": "http://terminology.hl7.org/CodeSystem/v2-0203",
            "code": "OBI",
            "display": "Observation Instance Identifier"
          } ]
        },
        "system": "https://mein.krankenhaus.de/fhir/NamingSystem/observationId",
        "value": "7073282699a0b20d5465fc3398b0374e92e05b3b65a6961f13a10fe61d33c625",
        "assigner": {
          "reference": "Organization/3a4f3433bce81181bad2d8e0b8fafccf7dc800bc06f29be73dcb38b750a48f9a"
        }
      } ],
      "status": "final",
      "category": [ {
        "coding": [ {
          "system": "http://terminology.hl7.org/CodeSystem/observation-category",
          "code": "vital-signs",
          "display": "Vital Signs"
        } ]
      } ],
      "code": {
        "coding": [ {
          "system": "http://loinc.org",
          "code": "9279-1"
        }, {
          "system": "http://snomed.info/sct",
          "code": "86290005"
        } ],
        "text": "Respiratory rate"
      },
      "subject": {
        "reference": "Patient/c48379323faf3a200ae9b56bcb1c2cc800089882f9227e65ddcb4ba61b258c2d"
      },
      "encounter": {
        "reference": "Encounter/184ddffacaca9034f9f1cb4ae18ffe2306480c502a98c52500388e8b96542598"
      },
      "effectiveDateTime": "2020-10-25T22:50:00+00:00",
      "valueQuantity": {
        "value": 150,
        "unit": "per minute",
        "system": "http://unitsofmeasure.org",
        "code": "/min"
      }
    },
    "request": {
      "method": "POST",
      "url": "Observation",
      "ifNoneExist": "identifier=https://mein.krankenhaus.de/fhir/NamingSystem/observationId|226e6969f0d8e0e6b8967cb3d223c27587a12cf09008852262661edbf5fbca3b"
    }
  }, {
    "fullUrl": "Observation/739c3ce3227eb21cc62605774f8543d2ec4954856bf6549ef2f763bbfef11123",
    "resource": {
      "resourceType": "Observation",
      "meta": {
        "profile": [ "https://www.netzwerk-universitaetsmedizin.de/fhir/StructureDefinition/blood-pressure" ]
      },
      "identifier": [ {
        "type": {
          "coding": [ {
            "system": "http://terminology.hl7.org/CodeSystem/v2-0203",
            "code": "OBI",
            "display": "Observation Instance Identifier"
          } ]
        },
        "system": "https://mein.krankenhaus.de/fhir/NamingSystem/observationId",
        "value": "08b5be8256bb67848b5bb67c2b684a90987a6a73646177d27c47103ee0901955",
        "assigner": {
          "reference": "Organization/3a4f3433bce81181bad2d8e0b8fafccf7dc800bc06f29be73dcb38b750a48f9a"
        }
      } ],
      "status": "final",
      "category": [ {
        "coding": [ {
          "system": "http://terminology.hl7.org/CodeSystem/observation-category",
          "code": "vital-signs",
          "display": "Vital Signs"
        } ]
      } ],
      "code": {
        "coding": [ {
          "system": "http://loinc.org",
          "code": "85354-9",
          "display": "Blood pressure panel with all children optional"
        }, {
          "system": "http://snomed.info/sct",
          "code": "75367002",
          "display": "Blood pressure (observable entity)"
        } ],
        "text": "Blood pressure"
      },
      "subject": {
        "reference": "Patient/c48379323faf3a200ae9b56bcb1c2cc800089882f9227e65ddcb4ba61b258c2d"
      },
      "encounter": {
        "reference": "Encounter/184ddffacaca9034f9f1cb4ae18ffe2306480c502a98c52500388e8b96542598"
      },
      "effectiveDateTime": "2020-10-25T22:50:00+00:00",
      "component": [ {
        "code": {
          "coding": [ {
            "system": "http://loinc.org",
            "code": "8480-6"
          }, {
            "system": "http://snomed.info/sct",
            "code": "271649006"
          } ],
          "text": "Systolic blood pressure"
        },
        "valueQuantity": {
          "value": 161,
          "unit": "mmHg",
          "system": "http://unitsofmeasure.org",
          "code": "mm[Hg]"
        }
      }, {
        "code": {
          "coding": [ {
            "system": "http://loinc.org",
            "code": "8462-4"
          }, {
            "system": "http://snomed.info/sct",
            "code": "271650006"
          } ],
          "text": "Diastolic blood pressure"
        },
        "valueQuantity": {
          "value": 112,
          "unit": "mmHg",
          "system": "http://unitsofmeasure.org",
          "code": "mm[Hg]"
        }
      } ]
    },
    "request": {
      "method": "POST",
      "url": "Observation",
      "ifNoneExist": "identifier=https://mein.krankenhaus.de/fhir/NamingSystem/observationId|739c3ce3227eb21cc62605774f8543d2ec4954856bf6549ef2f763bbfef11123"
    }
  }, {
    "fullUrl": "Observation/944ce0dad6dd8bb68be7c6976ee5e661003203531b279fafd3d768c06a06d1f4",
    "resource": {
      "resourceType": "Observation",
      "meta": {
        "profile": [ "https://www.netzwerk-universitaetsmedizin.de/fhir/StructureDefinition/heart-rate" ]
      },
      "identifier": [ {
        "type": {
          "coding": [ {
            "system": "http://terminology.hl7.org/CodeSystem/v2-0203",
            "code": "OBI",
            "display": "Observation Instance Identifier"
          } ]
        },
        "system": "https://mein.krankenhaus.de/fhir/NamingSystem/observationId",
        "value": "35e2ce48c47a2b6bb7d5f0fcfb4beda3090ec1c8543a3ab1050f768268906e6f",
        "assigner": {
          "reference": "Organization/3a4f3433bce81181bad2d8e0b8fafccf7dc800bc06f29be73dcb38b750a48f9a"
        }
      } ],
      "status": "final",
      "category": [ {
        "coding": [ {
          "system": "http://terminology.hl7.org/CodeSystem/observation-category",
          "code": "vital-signs",
          "display": "Vital Signs"
        } ]
      } ],
      "code": {
        "coding": [ {
          "system": "http://loinc.org",
          "code": "8867-4"
        }, {
          "system": "http://snomed.info/sct",
          "code": "364075005"
        } ],
        "text": "Heart rate"
      },
      "subject": {
        "reference": "Patient/c48379323faf3a200ae9b56bcb1c2cc800089882f9227e65ddcb4ba61b258c2d"
      },
      "encounter": {
        "reference": "Encounter/184ddffacaca9034f9f1cb4ae18ffe2306480c502a98c52500388e8b96542598"
      },
      "effectiveDateTime": "2020-10-25T22:50:00+00:00",
      "valueQuantity": {
        "value": 218,
        "unit": "per minute",
        "system": "http://unitsofmeasure.org",
        "code": "/min"
      }
    },
    "request": {
      "method": "POST",
      "url": "Observation",
      "ifNoneExist": "identifier=https://mein.krankenhaus.de/fhir/NamingSystem/observationId|944ce0dad6dd8bb68be7c6976ee5e661003203531b279fafd3d768c06a06d1f4"
    }
  }, {
    "fullUrl": "Observation/d06490287273513f55c8e5fbf21150d1aade33db75c9fadca3a4c3235517b1ac",
    "resource": {
      "resourceType": "Observation",
      "meta": {
        "profile": [ "https://www.netzwerk-universitaetsmedizin.de/fhir/StructureDefinition/body-temperature" ]
      },
      "identifier": [ {
        "type": {
          "coding": [ {
            "system": "http://terminology.hl7.org/CodeSystem/v2-0203",
            "code": "OBI",
            "display": "Observation Instance Identifier"
          } ]
        },
        "system": "https://mein.krankenhaus.de/fhir/NamingSystem/observationId",
        "value": "1a969da86e21ed9625a85f342e238a242cc58442405ddde34d17d7827af51f4d",
        "assigner": {
          "reference": "Organization/3a4f3433bce81181bad2d8e0b8fafccf7dc800bc06f29be73dcb38b750a48f9a"
        }
      } ],
      "status": "final",
      "category": [ {
        "coding": [ {
          "system": "http://terminology.hl7.org/CodeSystem/observation-category",
          "code": "vital-signs",
          "display": "Vital Signs"
        } ]
      } ],
      "code": {
        "coding": [ {
          "system": "http://loinc.org",
          "code": "8310-5"
        }, {
          "system": "http://snomed.info/sct",
          "code": "386725007"
        } ],
        "text": "Body temperature"
      },
      "subject": {
        "reference": "Patient/c48379323faf3a200ae9b56bcb1c2cc800089882f9227e65ddcb4ba61b258c2d"
      },
      "encounter": {
        "reference": "Encounter/184ddffacaca9034f9f1cb4ae18ffe2306480c502a98c52500388e8b96542598"
      },
      "effectiveDateTime": "2020-10-25T22:50:00+00:00",
      "valueQuantity": {
        "value": 30.12005751353617,
        "unit": "C",
        "system": "http://unitsofmeasure.org",
        "code": "Cel"
      }
    },
    "request": {
      "method": "POST",
      "url": "Observation",
      "ifNoneExist": "identifier=https://mein.krankenhaus.de/fhir/NamingSystem/observationId|d06490287273513f55c8e5fbf21150d1aade33db75c9fadca3a4c3235517b1ac"
    }
  }, {
    "fullUrl": "Observation/8b071ca6ae0157e05a6e7f35b05466dc3439f460837c78e25f3f9030d671a1be",
    "resource": {
      "resourceType": "Observation",
      "meta": {
        "profile": [ "https://www.netzwerk-universitaetsmedizin.de/fhir/StructureDefinition/oxygen-saturation" ]
      },
      "identifier": [ {
        "type": {
          "coding": [ {
            "system": "http://terminology.hl7.org/CodeSystem/v2-0203",
            "code": "OBI",
            "display": "Observation Instance Identifier"
          } ]
        },
        "system": "https://mein.krankenhaus.de/fhir/NamingSystem/observationId",
        "value": "329aec81a1d24ee70642739aad9f8fde17acc196f9c033555990fd41b698adf3",
        "assigner": {
          "reference": "Organization/3a4f3433bce81181bad2d8e0b8fafccf7dc800bc06f29be73dcb38b750a48f9a"
        }
      } ],
      "status": "final",
      "category": [ {
        "coding": [ {
          "system": "http://terminology.hl7.org/CodeSystem/observation-category",
          "code": "vital-signs",
          "display": "Vital Signs"
        } ]
      } ],
      "code": {
        "coding": [ {
          "system": "http://loinc.org",
          "code": "2708-6"
        }, {
          "system": "http://loinc.org",
          "code": "59408-5"
        }, {
          "system": "http://loinc.org",
          "code": "20564-1"
        }, {
          "system": "http://snomed.info/sct",
          "code": "431314004"
        } ],
        "text": "Oxygen saturation in Arterial blood"
      },
      "subject": {
        "reference": "Patient/c48379323faf3a200ae9b56bcb1c2cc800089882f9227e65ddcb4ba61b258c2d"
      },
      "encounter": {
        "reference": "Encounter/184ddffacaca9034f9f1cb4ae18ffe2306480c502a98c52500388e8b96542598"
      },
      "effectiveDateTime": "2020-10-25T22:50:00+00:00",
      "valueQuantity": {
        "value": 8,
        "unit": "%",
        "system": "http://unitsofmeasure.org",
        "code": "%"
      }
    },
    "request": {
      "method": "POST",
      "url": "Observation",
      "ifNoneExist": "identifier=https://mein.krankenhaus.de/fhir/NamingSystem/observationId|8b071ca6ae0157e05a6e7f35b05466dc3439f460837c78e25f3f9030d671a1be"
    }
  }, {
    "fullUrl": "Observation/ec7371eae84c277e734027077629a56b98cf1700e3f8301750faff8a6a4438ba",
    "resource": {
      "resourceType": "Observation",
      "meta": {
        "profile": [ "https://www.netzwerk-universitaetsmedizin.de/fhir/StructureDefinition/carbon-dioxide-partial-pressure" ]
      },
      "identifier": [ {
        "type": {
          "coding": [ {
            "system": "http://terminology.hl7.org/CodeSystem/v2-0203",
            "code": "OBI",
            "display": "Observation Instance Identifier"
          } ]
        },
        "system": "https://mein.krankenhaus.de/fhir/NamingSystem/observationId",
        "value": "b174dbcf4e82187544a7d36331def14f592f0985b7634735f2fb9b2b6305c409",
        "assigner": {
          "reference": "Organization/3a4f3433bce81181bad2d8e0b8fafccf7dc800bc06f29be73dcb38b750a48f9a"
        }
      } ],
      "status": "final",
      "category": [ {
        "coding": [ {
          "system": "http://terminology.hl7.org/CodeSystem/observation-category",
          "code": "laboratory",
          "display": "Laboratory"
        }, {
          "system": "http://loinc.org",
          "code": "26436-6",
          "display": "Laboratory studies (set)"
        }, {
          "system": "http://loinc.org",
          "code": "18767-4",
          "display": "Blood gas studies (set)"
        } ]
      } ],
      "code": {
        "coding": [ {
          "system": "http://loinc.org",
          "code": "11557-6"
        } ],
        "text": "Carbon dioxide [Partial pressure] in blood"
      },
      "subject": {
        "reference": "Patient/c48379323faf3a200ae9b56bcb1c2cc800089882f9227e65ddcb4ba61b258c2d"
      },
      "encounter": {
        "reference": "Encounter/184ddffacaca9034f9f1cb4ae18ffe2306480c502a98c52500388e8b96542598"
      },
      "effectiveDateTime": "2020-05-10T04:56:00+00:00",
      "valueQuantity": {
        "value": 103,
        "unit": "mmHg",
        "system": "http://unitsofmeasure.org",
        "code": "mm[Hg]"
      }
    },
    "request": {
      "method": "POST",
      "url": "Observation",
      "ifNoneExist": "identifier=https://mein.krankenhaus.de/fhir/NamingSystem/observationId|ec7371eae84c277e734027077629a56b98cf1700e3f8301750faff8a6a4438ba"
    }
  }, {
    "fullUrl": "Observation/4205578a2f64eae3b0aed2bac60c9de4d0e66f7973e69bd59c8f8886dcc78901",
    "resource": {
      "resourceType": "Observation",
      "meta": {
        "profile": [ "https://www.netzwerk-universitaetsmedizin.de/fhir/StructureDefinition/oxygen-partial-pressure" ]
      },
      "identifier": [ {
        "type": {
          "coding": [ {
            "system": "http://terminology.hl7.org/CodeSystem/v2-0203",
            "code": "OBI",
            "display": "Observation Instance Identifier"
          } ]
        },
        "system": "https://mein.krankenhaus.de/fhir/NamingSystem/observationId",
        "value": "bb8fba1a1b64e4d7ff378a92ebe00648d8c4f83c1ccc3893f6f2630eb210ecdc",
        "assigner": {
          "reference": "Organization/3a4f3433bce81181bad2d8e0b8fafccf7dc800bc06f29be73dcb38b750a48f9a"
        }
      } ],
      "status": "final",
      "category": [ {
        "coding": [ {
          "system": "http://terminology.hl7.org/CodeSystem/observation-category",
          "code": "laboratory",
          "display": "Laboratory"
        }, {
          "system": "http://loinc.org",
          "code": "26436-6",
          "display": "Laboratory studies (set)"
        }, {
          "system": "http://loinc.org",
          "code": "18767-4",
          "display": "Blood gas studies (set)"
        } ]
      } ],
      "code": {
        "coding": [ {
          "system": "http://loinc.org",
          "code": "11557-8"
        } ],
        "text": "Oxygen [Partial pressure] in blood"
      },
      "subject": {
        "reference": "Patient/c48379323faf3a200ae9b56bcb1c2cc800089882f9227e65ddcb4ba61b258c2d"
      },
      "encounter": {
        "reference": "Encounter/184ddffacaca9034f9f1cb4ae18ffe2306480c502a98c52500388e8b96542598"
      },
      "effectiveDateTime": "2020-05-10T04:56:00+00:00",
      "valueQuantity": {
        "value": 147,
        "unit": "mmHg",
        "system": "http://unitsofmeasure.org",
        "code": "mm[Hg]"
      }
    },
    "request": {
      "method": "POST",
      "url": "Observation",
      "ifNoneExist": "identifier=https://mein.krankenhaus.de/fhir/NamingSystem/observationId|4205578a2f64eae3b0aed2bac60c9de4d0e66f7973e69bd59c8f8886dcc78901"
    }
  }, {
    "fullUrl": "Observation/811316d336b7540432cfc6888efc38a32a4148dedae24a8211a8585c5c7698b9",
    "resource": {
      "resourceType": "Observation",
      "meta": {
        "profile": [ "https://www.netzwerk-universitaetsmedizin.de/fhir/StructureDefinition/inhaled-oxygen-concentration" ]
      },
      "identifier": [ {
        "type": {
          "coding": [ {
            "system": "http://terminology.hl7.org/CodeSystem/v2-0203",
            "code": "OBI",
            "display": "Observation Instance Identifier"
          } ]
        },
        "system": "https://mein.krankenhaus.de/fhir/NamingSystem/observationId",
        "value": "bae2b64c87568a0ce8073ede9b7516fbd6014820434d07c7b3921b9f4cb7c461",
        "assigner": {
          "reference": "Organization/3a4f3433bce81181bad2d8e0b8fafccf7dc800bc06f29be73dcb38b750a48f9a"
        }
      } ],
      "status": "final",
      "category": [ {
        "coding": [ {
          "system": "http://terminology.hl7.org/CodeSystem/observation-category",
          "code": "laboratory",
          "display": "Laboratory"
        }, {
          "system": "http://loinc.org",
          "code": "26436-6",
          "display": "Laboratory studies (set)"
        }, {
          "system": "http://loinc.org",
          "code": "18767-4",
          "display": "Blood gas studies (set)"
        } ]
      } ],
      "code": {
        "coding": [ {
          "system": "http://loinc.org",
          "code": "3150-0"
        }, {
          "system": "http://snomed.info/sct",
          "code": "250774007"
        } ],
        "text": "Oxygen [Partial pressure] in blood"
      },
      "subject": {
        "reference": "Patient/c48379323faf3a200ae9b56bcb1c2cc800089882f9227e65ddcb4ba61b258c2d"
      },
      "encounter": {
        "reference": "Encounter/184ddffacaca9034f9f1cb4ae18ffe2306480c502a98c52500388e8b96542598"
      },
      "effectiveDateTime": "2020-05-10T04:56:00+00:00",
      "valueQuantity": {
        "value": 43.44119936633314,
        "unit": "%",
        "system": "http://unitsofmeasure.org",
        "code": "%"
      }
    },
    "request": {
      "method": "POST",
      "url": "Observation",
      "ifNoneExist": "identifier=https://mein.krankenhaus.de/fhir/NamingSystem/observationId|811316d336b7540432cfc6888efc38a32a4148dedae24a8211a8585c5c7698b9"
    }
  }, {
    "fullUrl": "Observation/143ad37d54e9556a25c96e78d81a21b3332da5a2fd98d1dc210bee84281cc7b4",
    "resource": {
      "resourceType": "Observation",
      "meta": {
        "profile": [ "https://www.netzwerk-universitaetsmedizin.de/fhir/StructureDefinition/pH" ]
      },
      "identifier": [ {
        "type": {
          "coding": [ {
            "system": "http://terminology.hl7.org/CodeSystem/v2-0203",
            "code": "OBI",
            "display": "Observation Instance Identifier"
          } ]
        },
        "system": "https://mein.krankenhaus.de/fhir/NamingSystem/observationId",
        "value": "90cd33e80a6709744d819660578f1cedb78c77c836143f669c85db3ab2f92f9f",
        "assigner": {
          "reference": "Organization/3a4f3433bce81181bad2d8e0b8fafccf7dc800bc06f29be73dcb38b750a48f9a"
        }
      } ],
      "status": "final",
      "category": [ {
        "coding": [ {
          "system": "http://terminology.hl7.org/CodeSystem/observation-category",
          "code": "laboratory",
          "display": "Laboratory"
        }, {
          "system": "http://loinc.org",
          "code": "26436-6",
          "display": "Laboratory studies (set)"
        }, {
          "system": "http://loinc.org",
          "code": "18767-4",
          "display": "Blood gas studies (set)"
        } ]
      } ],
      "code": {
        "coding": [ {
          "system": "http://loinc.org",
          "code": "11558-4"
        } ],
        "text": "pH of Blood"
      },
      "subject": {
        "reference": "Patient/c48379323faf3a200ae9b56bcb1c2cc800089882f9227e65ddcb4ba61b258c2d"
      },
      "encounter": {
        "reference": "Encounter/184ddffacaca9034f9f1cb4ae18ffe2306480c502a98c52500388e8b96542598"
      },
      "effectiveDateTime": "2020-05-10T04:56:00+00:00",
      "valueQuantity": {
        "value": 6.442632257523174,
        "unit": "pH",
        "system": "http://unitsofmeasure.org",
        "code": "[pH]"
      }
    },
    "request": {
      "method": "POST",
      "url": "Observation",
      "ifNoneExist": "identifier=https://mein.krankenhaus.de/fhir/NamingSystem/observationId|143ad37d54e9556a25c96e78d81a21b3332da5a2fd98d1dc210bee84281cc7b4"
    }
  }, {
    "fullUrl": "Observation/eb2baafd3d50b844832b4e2bd7f572e0fa50dfacc36168a73791c95bd7d1452f",
    "resource": {
      "resourceType": "Observation",
      "meta": {
        "profile": [ "https://www.netzwerk-universitaetsmedizin.de/fhir/StructureDefinition/sofa-score" ]
      },
      "identifier": [ {
        "type": {
          "coding": [ {
            "system": "http://terminology.hl7.org/CodeSystem/v2-0203",
            "code": "OBI",
            "display": "Observation Instance Identifier"
          } ]
        },
        "system": "https://mein.krankenhaus.de/fhir/NamingSystem/observationId",
        "value": "181954db8ef732fb3f3d7b063a5a409fc2c9561de4975539bcea595da24a7ae2",
        "assigner": {
          "reference": "Organization/3a4f3433bce81181bad2d8e0b8fafccf7dc800bc06f29be73dcb38b750a48f9a"
        }
      } ],
      "status": "final",
      "category": [ {
        "coding": [ {
          "system": "http://terminology.hl7.org/CodeSystem/observation-category",
          "code": "survey",
          "display": "Survey"
        } ]
      } ],
      "code": {
        "coding": [ {
          "system": "https://www.netzwerk-universitaetsmedizin.de/fhir/CodeSystem/ecrf-parameter-codes",
          "code": "06",
          "display": "SOFA-Score"
        } ],
        "text": "Sepsis-related organ failure assessment score"
      },
      "subject": {
        "reference": "Patient/c48379323faf3a200ae9b56bcb1c2cc800089882f9227e65ddcb4ba61b258c2d"
      },
      "encounter": {
        "reference": "Encounter/184ddffacaca9034f9f1cb4ae18ffe2306480c502a98c52500388e8b96542598"
      },
      "effectiveDateTime": "2020-05-10T04:56:00+00:00",
      "valueInteger": 13,
      "component": [ {
        "code": {
          "coding": [ {
            "system": "https://www.netzwerk-universitaetsmedizin.de/fhir/CodeSystem/sofa-score",
            "code": "resp",
            "display": "Respiratory system"
          } ],
          "text": "SOFA Respiratory system scoring category"
        },
        "valueCodeableConcept": {
          "coding": [ {
            "system": "https://www.netzwerk-universitaetsmedizin.de/fhir/CodeSystem/sofa-score",
            "code": "resp2",
            "display": "Respiratory system SOFA score 2"
          } ],
          "text": "PaO2/FiO2 [mmHg (kPa)] < 300 (40)"
        }
      }, {
        "code": {
          "coding": [ {
            "system": "https://www.netzwerk-universitaetsmedizin.de/fhir/CodeSystem/sofa-score",
            "code": "ns",
            "display": "Nervous system"
          } ],
          "text": "SOFA Nervous system scoring category"
        },
        "valueCodeableConcept": {
          "coding": [ {
            "system": "https://www.netzwerk-universitaetsmedizin.de/fhir/CodeSystem/sofa-score",
            "code": "ns2",
            "display": "Nervous system SOFA score 2"
          } ],
          "text": "Glasgow Coma Scale (GCS) 10-12"
        }
      }, {
        "code": {
          "coding": [ {
            "system": "https://www.netzwerk-universitaetsmedizin.de/fhir/CodeSystem/sofa-score",
            "code": "cvs",
            "display": "Cardiovascular system"
          } ],
          "text": "SOFA Cardiovascular system scoring category"
        },
        "valueCodeableConcept": {
          "coding": [ {
            "system": "https://www.netzwerk-universitaetsmedizin.de/fhir/CodeSystem/sofa-score",
            "code": "cvs3",
            "display": "Cardiovascular system SOFA score 3"
          } ],
          "text": "Administration of dopamine > 5 ug/kg/min OR epinephrine  0.1 ug/kg/min OR norepinephrine  0.1 ug/kg/min"
        }
      }, {
        "code": {
          "coding": [ {
            "system": "https://www.netzwerk-universitaetsmedizin.de/fhir/CodeSystem/sofa-score",
            "code": "liv",
            "display": "Liver"
          } ],
          "text": "SOFA Liver scoring category"
        },
        "valueCodeableConcept": {
          "coding": [ {
            "system": "https://www.netzwerk-universitaetsmedizin.de/fhir/CodeSystem/sofa-score",
            "code": "liv3",
            "display": "Liver SOFA score 3"
          } ],
          "text": "Bilirubin (mg/dl) [umol/L] 6.0-11.9 [102-204]"
        }
      }, {
        "code": {
          "coding": [ {
            "system": "https://www.netzwerk-universitaetsmedizin.de/fhir/CodeSystem/sofa-score",
            "code": "coa",
            "display": "Coagulation"
          } ],
          "text": "SOFA Coagulation scoring category"
        },
        "valueCodeableConcept": {
          "coding": [ {
            "system": "https://www.netzwerk-universitaetsmedizin.de/fhir/CodeSystem/sofa-score",
            "code": "coa3",
            "display": "Coagulation SOFA score 3"
          } ],
          "text": "Platelets10^3/ul < 50"
        }
      } ]
    },
    "request": {
      "method": "POST",
      "url": "Observation",
      "ifNoneExist": "identifier=https://mein.krankenhaus.de/fhir/NamingSystem/observationId|eb2baafd3d50b844832b4e2bd7f572e0fa50dfacc36168a73791c95bd7d1452f"
    }
  }, {
    "fullUrl": "Observation/3d31843bf44d5c12b0068309584773b7c3ea1c2fad0b4ca50c280cf67dde1902",
    "resource": {
      "resourceType": "Observation",
      "meta": {
        "profile": [ "https://www.netzwerk-universitaetsmedizin.de/fhir/StructureDefinition/respiratory-rate" ]
      },
      "identifier": [ {
        "type": {
          "coding": [ {
            "system": "http://terminology.hl7.org/CodeSystem/v2-0203",
            "code": "OBI",
            "display": "Observation Instance Identifier"
          } ]
        },
        "system": "https://mein.krankenhaus.de/fhir/NamingSystem/observationId",
        "value": "d333cc3f581746cc7f62e828b69fb12ad42f5b9cd53b7f48f035e43999ef0782",
        "assigner": {
          "reference": "Organization/3a4f3433bce81181bad2d8e0b8fafccf7dc800bc06f29be73dcb38b750a48f9a"
        }
      } ],
      "status": "final",
      "category": [ {
        "coding": [ {
          "system": "http://terminology.hl7.org/CodeSystem/observation-category",
          "code": "vital-signs",
          "display": "Vital Signs"
        } ]
      } ],
      "code": {
        "coding": [ {
          "system": "http://loinc.org",
          "code": "9279-1"
        }, {
          "system": "http://snomed.info/sct",
          "code": "86290005"
        } ],
        "text": "Respiratory rate"
      },
      "subject": {
        "reference": "Patient/c48379323faf3a200ae9b56bcb1c2cc800089882f9227e65ddcb4ba61b258c2d"
      },
      "encounter": {
        "reference": "Encounter/184ddffacaca9034f9f1cb4ae18ffe2306480c502a98c52500388e8b96542598"
      },
      "effectiveDateTime": "2020-05-10T04:56:00+00:00",
      "valueQuantity": {
        "value": 43,
        "unit": "per minute",
        "system": "http://unitsofmeasure.org",
        "code": "/min"
      }
    },
    "request": {
      "method": "POST",
      "url": "Observation",
      "ifNoneExist": "identifier=https://mein.krankenhaus.de/fhir/NamingSystem/observationId|3d31843bf44d5c12b0068309584773b7c3ea1c2fad0b4ca50c280cf67dde1902"
    }
  }, {
    "fullUrl": "Observation/8c3c9c31a14f82f4c7ec022c76998d7354175366d03282e4976d22098bb6053e",
    "resource": {
      "resourceType": "Observation",
      "meta": {
        "profile": [ "https://www.netzwerk-universitaetsmedizin.de/fhir/StructureDefinition/blood-pressure" ]
      },
      "identifier": [ {
        "type": {
          "coding": [ {
            "system": "http://terminology.hl7.org/CodeSystem/v2-0203",
            "code": "OBI",
            "display": "Observation Instance Identifier"
          } ]
        },
        "system": "https://mein.krankenhaus.de/fhir/NamingSystem/observationId",
        "value": "8cea23729d11d55ac34dc87c11f1d0f4d58f4b6d622b3a91cd49923b47c3d64d",
        "assigner": {
          "reference": "Organization/3a4f3433bce81181bad2d8e0b8fafccf7dc800bc06f29be73dcb38b750a48f9a"
        }
      } ],
      "status": "final",
      "category": [ {
        "coding": [ {
          "system": "http://terminology.hl7.org/CodeSystem/observation-category",
          "code": "vital-signs",
          "display": "Vital Signs"
        } ]
      } ],
      "code": {
        "coding": [ {
          "system": "http://loinc.org",
          "code": "85354-9",
          "display": "Blood pressure panel with all children optional"
        }, {
          "system": "http://snomed.info/sct",
          "code": "75367002",
          "display": "Blood pressure (observable entity)"
        } ],
        "text": "Blood pressure"
      },
      "subject": {
        "reference": "Patient/c48379323faf3a200ae9b56bcb1c2cc800089882f9227e65ddcb4ba61b258c2d"
      },
      "encounter": {
        "reference": "Encounter/184ddffacaca9034f9f1cb4ae18ffe2306480c502a98c52500388e8b96542598"
      },
      "effectiveDateTime": "2020-05-10T04:56:00+00:00",
      "component": [ {
        "code": {
          "coding": [ {
            "system": "http://loinc.org",
            "code": "8480-6"
          }, {
            "system": "http://snomed.info/sct",
            "code": "271649006"
          } ],
          "text": "Systolic blood pressure"
        }
      }, {
        "code": {
          "coding": [ {
            "system": "http://loinc.org",
            "code": "8462-4"
          }, {
            "system": "http://snomed.info/sct",
            "code": "271650006"
          } ],
          "text": "Diastolic blood pressure"
        },
        "valueQuantity": {
          "value": 44,
          "unit": "mmHg",
          "system": "http://unitsofmeasure.org",
          "code": "mm[Hg]"
        }
      } ]
    },
    "request": {
      "method": "POST",
      "url": "Observation",
      "ifNoneExist": "identifier=https://mein.krankenhaus.de/fhir/NamingSystem/observationId|8c3c9c31a14f82f4c7ec022c76998d7354175366d03282e4976d22098bb6053e"
    }
  }, {
    "fullUrl": "Observation/74b4e114297b232846f431ecfabc20580eb5ee98ff1c4c1a818a067e2c8492df",
    "resource": {
      "resourceType": "Observation",
      "meta": {
        "profile": [ "https://www.netzwerk-universitaetsmedizin.de/fhir/StructureDefinition/heart-rate" ]
      },
      "identifier": [ {
        "type": {
          "coding": [ {
            "system": "http://terminology.hl7.org/CodeSystem/v2-0203",
            "code": "OBI",
            "display": "Observation Instance Identifier"
          } ]
        },
        "system": "https://mein.krankenhaus.de/fhir/NamingSystem/observationId",
        "value": "7b03d381d11b8b4e64a2ae4be801df68a33d062b083fdc21c641377ac9632da5",
        "assigner": {
          "reference": "Organization/3a4f3433bce81181bad2d8e0b8fafccf7dc800bc06f29be73dcb38b750a48f9a"
        }
      } ],
      "status": "final",
      "category": [ {
        "coding": [ {
          "system": "http://terminology.hl7.org/CodeSystem/observation-category",
          "code": "vital-signs",
          "display": "Vital Signs"
        } ]
      } ],
      "code": {
        "coding": [ {
          "system": "http://loinc.org",
          "code": "8867-4"
        }, {
          "system": "http://snomed.info/sct",
          "code": "364075005"
        } ],
        "text": "Heart rate"
      },
      "subject": {
        "reference": "Patient/c48379323faf3a200ae9b56bcb1c2cc800089882f9227e65ddcb4ba61b258c2d"
      },
      "encounter": {
        "reference": "Encounter/184ddffacaca9034f9f1cb4ae18ffe2306480c502a98c52500388e8b96542598"
      },
      "effectiveDateTime": "2020-05-10T04:56:00+00:00",
      "valueQuantity": {
        "value": 57,
        "unit": "per minute",
        "system": "http://unitsofmeasure.org",
        "code": "/min"
      }
    },
    "request": {
      "method": "POST",
      "url": "Observation",
      "ifNoneExist": "identifier=https://mein.krankenhaus.de/fhir/NamingSystem/observationId|74b4e114297b232846f431ecfabc20580eb5ee98ff1c4c1a818a067e2c8492df"
    }
  }, {
    "fullUrl": "Observation/7891b2519eebced4a1886e9f91713123d22554c43ea4a3a977f7f38123252f56",
    "resource": {
      "resourceType": "Observation",
      "meta": {
        "profile": [ "https://www.netzwerk-universitaetsmedizin.de/fhir/StructureDefinition/body-temperature" ]
      },
      "identifier": [ {
        "type": {
          "coding": [ {
            "system": "http://terminology.hl7.org/CodeSystem/v2-0203",
            "code": "OBI",
            "display": "Observation Instance Identifier"
          } ]
        },
        "system": "https://mein.krankenhaus.de/fhir/NamingSystem/observationId",
        "value": "5264bbd7f76f6a9131d45f9169430e0bfca3191a961e592d5fbcb3d52a569517",
        "assigner": {
          "reference": "Organization/3a4f3433bce81181bad2d8e0b8fafccf7dc800bc06f29be73dcb38b750a48f9a"
        }
      } ],
      "status": "final",
      "category": [ {
        "coding": [ {
          "system": "http://terminology.hl7.org/CodeSystem/observation-category",
          "code": "vital-signs",
          "display": "Vital Signs"
        } ]
      } ],
      "code": {
        "coding": [ {
          "system": "http://loinc.org",
          "code": "8310-5"
        }, {
          "system": "http://snomed.info/sct",
          "code": "386725007"
        } ],
        "text": "Body temperature"
      },
      "subject": {
        "reference": "Patient/c48379323faf3a200ae9b56bcb1c2cc800089882f9227e65ddcb4ba61b258c2d"
      },
      "encounter": {
        "reference": "Encounter/184ddffacaca9034f9f1cb4ae18ffe2306480c502a98c52500388e8b96542598"
      },
      "effectiveDateTime": "2020-05-10T04:56:00+00:00",
      "valueQuantity": {
        "value": 30.988686683637628,
        "unit": "C",
        "system": "http://unitsofmeasure.org",
        "code": "Cel"
      }
    },
    "request": {
      "method": "POST",
      "url": "Observation",
      "ifNoneExist": "identifier=https://mein.krankenhaus.de/fhir/NamingSystem/observationId|7891b2519eebced4a1886e9f91713123d22554c43ea4a3a977f7f38123252f56"
    }
  }, {
    "fullUrl": "Observation/2f01e138953cafb22e7479d1e072663dcc78c19d0b1c803a4dd7fa5ce6e6adc1",
    "resource": {
      "resourceType": "Observation",
      "meta": {
        "profile": [ "https://www.netzwerk-universitaetsmedizin.de/fhir/StructureDefinition/oxygen-saturation" ]
      },
      "identifier": [ {
        "type": {
          "coding": [ {
            "system": "http://terminology.hl7.org/CodeSystem/v2-0203",
            "code": "OBI",
            "display": "Observation Instance Identifier"
          } ]
        },
        "system": "https://mein.krankenhaus.de/fhir/NamingSystem/observationId",
        "value": "fdc697e4263b36c6a4d2d97f72084d4fcd9c97e242d7fbde9ef5bc3298aded9e",
        "assigner": {
          "reference": "Organization/3a4f3433bce81181bad2d8e0b8fafccf7dc800bc06f29be73dcb38b750a48f9a"
        }
      } ],
      "status": "final",
      "category": [ {
        "coding": [ {
          "system": "http://terminology.hl7.org/CodeSystem/observation-category",
          "code": "vital-signs",
          "display": "Vital Signs"
        } ]
      } ],
      "code": {
        "coding": [ {
          "system": "http://loinc.org",
          "code": "2708-6"
        }, {
          "system": "http://loinc.org",
          "code": "59408-5"
        }, {
          "system": "http://loinc.org",
          "code": "20564-1"
        }, {
          "system": "http://snomed.info/sct",
          "code": "431314004"
        } ],
        "text": "Oxygen saturation in Arterial blood"
      },
      "subject": {
        "reference": "Patient/c48379323faf3a200ae9b56bcb1c2cc800089882f9227e65ddcb4ba61b258c2d"
      },
      "encounter": {
        "reference": "Encounter/184ddffacaca9034f9f1cb4ae18ffe2306480c502a98c52500388e8b96542598"
      },
      "effectiveDateTime": "2020-05-10T04:56:00+00:00",
      "valueQuantity": {
        "value": 85,
        "unit": "%",
        "system": "http://unitsofmeasure.org",
        "code": "%"
      }
    },
    "request": {
      "method": "POST",
      "url": "Observation",
      "ifNoneExist": "identifier=https://mein.krankenhaus.de/fhir/NamingSystem/observationId|2f01e138953cafb22e7479d1e072663dcc78c19d0b1c803a4dd7fa5ce6e6adc1"
    }
  }, {
    "fullUrl": "Observation/7f82958577fa1b2aea5cba6ab8155eb2b9a9d994fd83366fe5ccbd8343a5979f",
    "resource": {
      "resourceType": "Observation",
      "meta": {
        "profile": [ "https://www.netzwerk-universitaetsmedizin.de/fhir/StructureDefinition/study-inclusion-covid-19" ]
      },
      "identifier": [ {
        "type": {
          "coding": [ {
            "system": "http://terminology.hl7.org/CodeSystem/v2-0203",
            "code": "OBI",
            "display": "Observation Instance Identifier"
          } ]
        },
        "system": "https://mein.krankenhaus.de/fhir/NamingSystem/observationId",
        "value": "c8dc1bc4e395a197d7104dcab5af1c39e3b5069b12c1e23647b2737fe11a01d4",
        "assigner": {
          "reference": "Organization/3a4f3433bce81181bad2d8e0b8fafccf7dc800bc06f29be73dcb38b750a48f9a"
        }
      } ],
      "status": "final",
      "category": [ {
        "coding": [ {
          "system": "http://terminology.hl7.org/CodeSystem/observation-category",
          "code": "survey",
          "display": "Survey"
        } ]
      } ],
      "code": {
        "coding": [ {
          "system": "https://www.netzwerk-universitaetsmedizin.de/fhir/CodeSystem/ecrf-parameter-codes",
          "code": "02",
          "display": "Study inclusion due to Covid-19"
        } ],
        "text": "Confirmed Covid-19 diagnosis as main reason for enrolment in the study"
      },
      "subject": {
        "reference": "Patient/c48379323faf3a200ae9b56bcb1c2cc800089882f9227e65ddcb4ba61b258c2d"
      },
      "_effectiveDateTime": {
        "extension": [ {
          "url": "http://hl7.org/fhir/StructureDefinition/data-absent-reason",
          "valueCode": "unknown"
        } ]
      },
      "valueCodeableConcept": {
        "coding": [ {
          "system": "http://snomed.info/sct",
          "code": "373067005"
        } ]
      }
    },
    "request": {
      "method": "POST",
      "url": "Observation",
      "ifNoneExist": "identifier=https://mein.krankenhaus.de/fhir/NamingSystem/observationId|7f82958577fa1b2aea5cba6ab8155eb2b9a9d994fd83366fe5ccbd8343a5979f"
    }
  }, {
    "fullUrl": "Observation/97ad627edc8786746f465d2ff5d9d1bd1f896a1b6e1af9a3eddd8142ece512cf",
    "resource": {
      "resourceType": "Observation",
      "meta": {
        "profile": [ "https://www.netzwerk-universitaetsmedizin.de/fhir/StructureDefinition/interventional-clinical-trial-participation" ]
      },
      "identifier": [ {
        "type": {
          "coding": [ {
            "system": "http://terminology.hl7.org/CodeSystem/v2-0203",
            "code": "OBI",
            "display": "Observation Instance Identifier"
          } ]
        },
        "system": "https://mein.krankenhaus.de/fhir/NamingSystem/observationId",
        "value": "01e78c292e3c08bf4e9da0b873bcd1cccb31347c91a9a138353c6769b1e6fc06",
        "assigner": {
          "reference": "Organization/3a4f3433bce81181bad2d8e0b8fafccf7dc800bc06f29be73dcb38b750a48f9a"
        }
      } ],
      "status": "final",
      "category": [ {
        "coding": [ {
          "system": "http://terminology.hl7.org/CodeSystem/observation-category",
          "code": "survey",
          "display": "Survey"
        } ]
      } ],
      "code": {
        "coding": [ {
          "system": "https://www.netzwerk-universitaetsmedizin.de/fhir/CodeSystem/ecrf-parameter-codes",
          "code": "03",
          "display": "Participation in interventional clinical trials"
        } ],
        "text": "Has the patient participated in one or more interventional clinical trials?"
      },
      "subject": {
        "reference": "Patient/c48379323faf3a200ae9b56bcb1c2cc800089882f9227e65ddcb4ba61b258c2d"
      },
      "_effectiveDateTime": {
        "extension": [ {
          "url": "http://hl7.org/fhir/StructureDefinition/data-absent-reason",
          "valueCode": "unknown"
        } ]
      },
      "valueCodeableConcept": {
        "coding": [ {
          "system": "http://snomed.info/sct",
          "code": "261665006"
        } ]
      }
    },
    "request": {
      "method": "POST",
      "url": "Observation",
      "ifNoneExist": "identifier=https://mein.krankenhaus.de/fhir/NamingSystem/observationId|97ad627edc8786746f465d2ff5d9d1bd1f896a1b6e1af9a3eddd8142ece512cf"
    }
  } ]
}