{
  "resourceType": "Bundle",
  "meta": {
    "profile": [ "https://www.netzwerk-universitaetsmedizin.de/fhir/StructureDefinition/gecco-bundle" ]
  },
  "type": "transaction",
  "entry": [ {
    "fullUrl": "Patient/21e0d5b45804d2f5674bb1e505832d4facd6199e84a95c681fc99aaee46d33e9",
    "resource": {
      "resourceType": "Patient",
      "meta": {
        "profile": [ "https://www.netzwerk-universitaetsmedizin.de/fhir/StructureDefinition/Patient" ]
      },
      "extension": [ {
        "url": "https://www.netzwerk-universitaetsmedizin.de/fhir/StructureDefinition/age",
        "extension": [ {
          "url": "dateTimeOfDocumentation",
          "_valueDateTime": {
            "extension": [ {
              "url": "http://hl7.org/fhir/StructureDefinition/data-absent-reason",
              "valueCode": "unknown"
            } ]
          }
        }, {
          "url": "age",
          "valueAge": {
            "value": 34,
            "unit": "years",
            "system": "http://unitsofmeasure.org",
            "code": "a"
          }
        } ]
      }, {
        "url": "https://www.netzwerk-universitaetsmedizin.de/fhir/StructureDefinition/ethnic-group",
        "valueCoding": {
          "system": "http://snomed.info/sct",
          "code": "90027003"
        }
      } ],
      "identifier": [ {
        "type": {
          "coding": [ {
            "system": "http://terminology.hl7.org/CodeSystem/v2-0203",
            "code": "MR"
          } ]
        },
        "system": "https://mein.krankenhaus.de/fhir/NamingSystem/patientId",
        "value": "synthetic_patient_110961970",
        "assigner": {
          "reference": "Organization/3a4f3433bce81181bad2d8e0b8fafccf7dc800bc06f29be73dcb38b750a48f9a"
        }
      } ],
      "birthDate": "1985-09-08"
    },
    "request": {
      "method": "POST",
      "url": "Patient",
      "ifNoneExist": "identifier=https://mein.krankenhaus.de/fhir/NamingSystem/patientId|21e0d5b45804d2f5674bb1e505832d4facd6199e84a95c681fc99aaee46d33e9"
    }
  }, {
    "fullUrl": "Organization/3a4f3433bce81181bad2d8e0b8fafccf7dc800bc06f29be73dcb38b750a48f9a",
    "resource": {
      "resourceType": "Organization",
      "name": "Mein Krankenhaus"
    },
    "request": {
      "method": "POST",
      "url": "Organization",
      "ifNoneExist": "identifier=null|3a4f3433bce81181bad2d8e0b8fafccf7dc800bc06f29be73dcb38b750a48f9a"
    }
  }, {
    "fullUrl": "Encounter/3795d720b91ec62c7e68716234034042ecb39df09e6f80bb13e2e4dd320ee705",
    "resource": {
      "resourceType": "Encounter",
      "identifier": [ {
        "system": "https://mein.krankenhaus.de/fhir/NamingSystem/encounterId",
        "value": "cee118e37979b536d73ddf950a5a0b3ba905d1c88c3398ac00c4fb80769c31bb",
        "assigner": {
          "reference": "Organization/3a4f3433bce81181bad2d8e0b8fafccf7dc800bc06f29be73dcb38b750a48f9a"
        }
      } ],
      "status": "unknown",
      "class": {
        "system": "http://terminology.hl7.org/CodeSystem/v3-ActCode",
        "code": "IMP",
        "display": "inpatient encounter"
      },
      "subject": {
        "reference": "Patient/21e0d5b45804d2f5674bb1e505832d4facd6199e84a95c681fc99aaee46d33e9"
      }
    },
    "request": {
      "method": "POST",
      "url": "Encounter",
      "ifNoneExist": "identifier=https://mein.krankenhaus.de/fhir/NamingSystem/encounterId|3795d720b91ec62c7e68716234034042ecb39df09e6f80bb13e2e4dd320ee705"
    }
  }, {
    "fullUrl": "Condition/451acb156a45f53c956653559f5138a5acc0d80a8f8c0280670697655e20f769",
    "resource": {
      "resourceType": "Condition",
      "meta": {
        "profile": [ "https://www.netzwerk-universitaetsmedizin.de/fhir/StructureDefinition/diagnosis-covid-19" ]
      },
      "identifier": [ {
        "system": "https://mein.krankenhaus.de/fhir/NamingSystem/conditionId",
        "value": "52474b926d182f4627c11655d99f337a1f6b9cd92f2b43b0a885ba97dd27b25e"
      } ],
      "clinicalStatus": {
        "coding": [ {
          "system": "http://terminology.hl7.org/CodeSystem/condition-clinical",
          "code": "active",
          "display": "Active"
        } ]
      },
      "verificationStatus": {
        "coding": [ {
          "system": "http://terminology.hl7.org/CodeSystem/condition-ver-status",
          "code": "confirmed",
          "display": "Confirmed"
        }, {
          "system": "http://snomed.info/sct",
          "code": "410605003",
          "display": "Confirmed present (qualifier value)"
        } ]
      },
      "category": [ {
        "coding": [ {
          "system": "http://snomed.info/sct",
          "code": "394807007",
          "display": "Infectious diseases (specialty) (qualifier value)"
        } ]
      } ],
      "code": {
        "coding": [ {
          "system": "http://snomed.info/sct",
          "code": "840539006",
          "display": "Disease caused by Severe acute respiratory syndrome coronavirus 2 (disorder)"
        } ]
      },
      "subject": {
        "reference": "Patient/21e0d5b45804d2f5674bb1e505832d4facd6199e84a95c681fc99aaee46d33e9"
      },
      "encounter": {
        "reference": "Encounter/3795d720b91ec62c7e68716234034042ecb39df09e6f80bb13e2e4dd320ee705"
      },
      "_recordedDate": {
        "extension": [ {
          "url": "http://hl7.org/fhir/StructureDefinition/data-absent-reason",
          "valueCode": "unknown"
        } ]
      },
      "stage": [ {
        "summary": {
          "coding": [ {
            "system": "http://snomed.info/sct",
            "code": "24484000"
          } ]
        },
        "type": {
          "coding": [ {
            "system": "http://loinc.org",
            "code": "88859-4"
          } ]
        }
      } ]
    },
    "request": {
      "method": "POST",
      "url": "Condition",
      "ifNoneExist": "identifier=https://mein.krankenhaus.de/fhir/NamingSystem/conditionId|451acb156a45f53c956653559f5138a5acc0d80a8f8c0280670697655e20f769"
    }
  }, {
    "fullUrl": "Condition/55c37be5c8c63af5ecfc46c1d706fab69283f63a179737f5826f5c6a6d9e1566",
    "resource": {
      "resourceType": "Condition",
      "meta": {
        "profile": [ "https://www.netzwerk-universitaetsmedizin.de/fhir/StructureDefinition/chronic-liver-diseases" ]
      },
      "identifier": [ {
        "system": "https://mein.krankenhaus.de/fhir/NamingSystem/conditionId",
        "value": "13d2416988751305ae59e56116f4cad1fbd0bf78b4f97cf12f0c0f9190577d12"
      } ],
      "clinicalStatus": {
        "coding": [ {
          "system": "http://terminology.hl7.org/CodeSystem/condition-clinical",
          "code": "active",
          "display": "Active"
        } ]
      },
      "verificationStatus": {
        "coding": [ {
          "system": "http://terminology.hl7.org/CodeSystem/condition-ver-status",
          "code": "confirmed",
          "display": "Confirmed"
        }, {
          "system": "http://snomed.info/sct",
          "code": "410605003",
          "display": "Confirmed present (qualifier value)"
        } ]
      },
      "category": [ {
        "coding": [ {
          "system": "http://snomed.info/sct",
          "code": "408472002",
          "display": "Hepatology (qualifier value)"
        } ]
      } ],
      "code": {
        "coding": [ {
          "system": "http://fhir.de/CodeSystem/dimdi/icd-10-gm",
          "version": "2021",
          "code": "K76.0"
        }, {
          "system": "http://snomed.info/sct",
          "code": "197321007"
        } ]
      },
      "subject": {
        "reference": "Patient/21e0d5b45804d2f5674bb1e505832d4facd6199e84a95c681fc99aaee46d33e9"
      },
      "encounter": {
        "reference": "Encounter/3795d720b91ec62c7e68716234034042ecb39df09e6f80bb13e2e4dd320ee705"
      },
      "_recordedDate": {
        "extension": [ {
          "url": "http://hl7.org/fhir/StructureDefinition/data-absent-reason",
          "valueCode": "unknown"
        } ]
      }
    },
    "request": {
      "method": "POST",
      "url": "Condition",
      "ifNoneExist": "identifier=https://mein.krankenhaus.de/fhir/NamingSystem/conditionId|55c37be5c8c63af5ecfc46c1d706fab69283f63a179737f5826f5c6a6d9e1566"
    }
  }, {
    "fullUrl": "Condition/c9cd6f5a27a2a71ef89b737483165d536ece8b36cc9b086b89564f4dbf8e320e",
    "resource": {
      "resourceType": "Condition",
      "meta": {
        "profile": [ "https://www.netzwerk-universitaetsmedizin.de/fhir/StructureDefinition/chronic-liver-diseases" ]
      },
      "identifier": [ {
        "system": "https://mein.krankenhaus.de/fhir/NamingSystem/conditionId",
        "value": "e4c0340a8efdd319e1cab9b008e7d0f3f75b1e07c0308c5472d61052cac86cea"
      } ],
      "verificationStatus": {
        "coding": [ {
          "system": "http://terminology.hl7.org/CodeSystem/condition-ver-status",
          "code": "refuted",
          "display": "Refuted"
        }, {
          "system": "http://snomed.info/sct",
          "code": "410594000",
          "display": "Definitely NOT present (qualifier value)"
        } ]
      },
      "category": [ {
        "coding": [ {
          "system": "http://snomed.info/sct",
          "code": "408472002",
          "display": "Hepatology (qualifier value)"
        } ]
      } ],
      "code": {
        "coding": [ {
          "system": "http://fhir.de/CodeSystem/dimdi/icd-10-gm",
          "version": "2021",
          "code": "K74.6"
        }, {
          "system": "http://snomed.info/sct",
          "code": "19943007"
        } ]
      },
      "subject": {
        "reference": "Patient/21e0d5b45804d2f5674bb1e505832d4facd6199e84a95c681fc99aaee46d33e9"
      },
      "encounter": {
        "reference": "Encounter/3795d720b91ec62c7e68716234034042ecb39df09e6f80bb13e2e4dd320ee705"
      },
      "_recordedDate": {
        "extension": [ {
          "url": "http://hl7.org/fhir/StructureDefinition/data-absent-reason",
          "valueCode": "unknown"
        } ]
      }
    },
    "request": {
      "method": "POST",
      "url": "Condition",
      "ifNoneExist": "identifier=https://mein.krankenhaus.de/fhir/NamingSystem/conditionId|c9cd6f5a27a2a71ef89b737483165d536ece8b36cc9b086b89564f4dbf8e320e"
    }
  }, {
    "fullUrl": "Condition/f437cc2b60f90e486e7f7d929c024cebd0b6db73bfcb58b0dade87176f48d6db",
    "resource": {
      "resourceType": "Condition",
      "meta": {
        "profile": [ "https://www.netzwerk-universitaetsmedizin.de/fhir/StructureDefinition/chronic-liver-diseases" ]
      },
      "identifier": [ {
        "system": "https://mein.krankenhaus.de/fhir/NamingSystem/conditionId",
        "value": "22ba8636232bac63bb55b43098eaf16fdc3878d19930f436bbf5c87f80bbda49"
      } ],
      "verificationStatus": {
        "coding": [ {
          "system": "http://terminology.hl7.org/CodeSystem/condition-ver-status",
          "code": "refuted",
          "display": "Refuted"
        }, {
          "system": "http://snomed.info/sct",
          "code": "410594000",
          "display": "Definitely NOT present (qualifier value)"
        } ]
      },
      "category": [ {
        "coding": [ {
          "system": "http://snomed.info/sct",
          "code": "408472002",
          "display": "Hepatology (qualifier value)"
        } ]
      } ],
      "code": {
        "coding": [ {
          "system": "http://fhir.de/CodeSystem/dimdi/icd-10-gm",
          "version": "2021",
          "code": "B18.9"
        }, {
          "system": "http://snomed.info/sct",
          "code": "10295004"
        } ]
      },
      "subject": {
        "reference": "Patient/21e0d5b45804d2f5674bb1e505832d4facd6199e84a95c681fc99aaee46d33e9"
      },
      "encounter": {
        "reference": "Encounter/3795d720b91ec62c7e68716234034042ecb39df09e6f80bb13e2e4dd320ee705"
      },
      "_recordedDate": {
        "extension": [ {
          "url": "http://hl7.org/fhir/StructureDefinition/data-absent-reason",
          "valueCode": "unknown"
        } ]
      }
    },
    "request": {
      "method": "POST",
      "url": "Condition",
      "ifNoneExist": "identifier=https://mein.krankenhaus.de/fhir/NamingSystem/conditionId|f437cc2b60f90e486e7f7d929c024cebd0b6db73bfcb58b0dade87176f48d6db"
    }
  }, {
    "fullUrl": "Condition/1d7c1371caa951ef317b8f50a711eb13d2ed11a926d19a5d434e5af505b7d24c",
    "resource": {
      "resourceType": "Condition",
      "meta": {
        "profile": [ "https://www.netzwerk-universitaetsmedizin.de/fhir/StructureDefinition/chronic-liver-diseases" ]
      },
      "identifier": [ {
        "system": "https://mein.krankenhaus.de/fhir/NamingSystem/conditionId",
        "value": "77a45e15590d12ce3d19a1f2989ecbbf8db0a29be21d41f8b2a5abd0c92a9c85"
      } ],
      "verificationStatus": {
        "coding": [ {
          "system": "http://terminology.hl7.org/CodeSystem/condition-ver-status",
          "code": "refuted",
          "display": "Refuted"
        }, {
          "system": "http://snomed.info/sct",
          "code": "410594000",
          "display": "Definitely NOT present (qualifier value)"
        } ]
      },
      "category": [ {
        "coding": [ {
          "system": "http://snomed.info/sct",
          "code": "408472002",
          "display": "Hepatology (qualifier value)"
        } ]
      } ],
      "code": {
        "coding": [ {
          "system": "http://snomed.info/sct",
          "code": "235890007"
        } ]
      },
      "subject": {
        "reference": "Patient/21e0d5b45804d2f5674bb1e505832d4facd6199e84a95c681fc99aaee46d33e9"
      },
      "encounter": {
        "reference": "Encounter/3795d720b91ec62c7e68716234034042ecb39df09e6f80bb13e2e4dd320ee705"
      },
      "_recordedDate": {
        "extension": [ {
          "url": "http://hl7.org/fhir/StructureDefinition/data-absent-reason",
          "valueCode": "unknown"
        } ]
      }
    },
    "request": {
      "method": "POST",
      "url": "Condition",
      "ifNoneExist": "identifier=https://mein.krankenhaus.de/fhir/NamingSystem/conditionId|1d7c1371caa951ef317b8f50a711eb13d2ed11a926d19a5d434e5af505b7d24c"
    }
  }, {
    "fullUrl": "Condition/f1dd70739666d836392e6bccb19218fc3516364fc4d5a3b141c2ae07be780d9b",
    "resource": {
      "resourceType": "Condition",
      "meta": {
        "profile": [ "https://www.netzwerk-universitaetsmedizin.de/fhir/StructureDefinition/human-immunodeficiency-virus-infection" ]
      },
      "modifierExtension": [ {
        "url": "https://www.netzwerk-universitaetsmedizin.de/fhir/StructureDefinition/uncertainty-of-presence",
        "valueCodeableConcept": {
          "coding": [ {
            "system": "http://snomed.info/sct",
            "code": "261665006",
            "display": "Unknown (qualifier value)"
          } ],
          "text": "Presence unknown."
        }
      } ],
      "identifier": [ {
        "system": "https://mein.krankenhaus.de/fhir/NamingSystem/conditionId",
        "value": "64f08995b25692ebf4e3509c230382124e6cb9caf7c09f52340685bec19dd74a"
      } ],
      "category": [ {
        "coding": [ {
          "system": "http://snomed.info/sct",
          "code": "394807007",
          "display": "Infectious diseases (specialty) (qualifier value)"
        } ]
      } ],
      "code": {
        "coding": [ {
          "system": "http://fhir.de/CodeSystem/dimdi/icd-10-gm",
          "version": "2021",
          "code": "B24"
        }, {
          "system": "http://snomed.info/sct",
          "code": "86406008"
        } ]
      },
      "subject": {
        "reference": "Patient/21e0d5b45804d2f5674bb1e505832d4facd6199e84a95c681fc99aaee46d33e9"
      },
      "encounter": {
        "reference": "Encounter/3795d720b91ec62c7e68716234034042ecb39df09e6f80bb13e2e4dd320ee705"
      },
      "_recordedDate": {
        "extension": [ {
          "url": "http://hl7.org/fhir/StructureDefinition/data-absent-reason",
          "valueCode": "unknown"
        } ]
      }
    },
    "request": {
      "method": "POST",
      "url": "Condition",
      "ifNoneExist": "identifier=https://mein.krankenhaus.de/fhir/NamingSystem/conditionId|f1dd70739666d836392e6bccb19218fc3516364fc4d5a3b141c2ae07be780d9b"
    }
  }, {
    "fullUrl": "Condition/94b3269e60cb67eb066f6920e8f0ec9153e5ed5f0e6f6ac5931fd4b3b7801c40",
    "resource": {
      "resourceType": "Condition",
      "meta": {
        "profile": [ "https://www.netzwerk-universitaetsmedizin.de/fhir/StructureDefinition/diabetes-mellitus" ]
      },
      "identifier": [ {
        "system": "https://mein.krankenhaus.de/fhir/NamingSystem/conditionId",
        "value": "6e107363b337908dbbca492d589bf86244f64c2458a600f5ced120732e4c7eac"
      } ],
      "verificationStatus": {
        "coding": [ {
          "system": "http://terminology.hl7.org/CodeSystem/condition-ver-status",
          "code": "refuted",
          "display": "Refuted"
        }, {
          "system": "http://snomed.info/sct",
          "code": "410594000",
          "display": "Definitely NOT present (qualifier value)"
        } ]
      },
      "category": [ {
        "coding": [ {
          "system": "http://snomed.info/sct",
          "code": "408475000",
          "display": "Diabetic medicine (qualifier value)"
        } ]
      } ],
      "code": {
        "coding": [ {
          "system": "http://fhir.de/CodeSystem/dimdi/icd-10-gm",
          "version": "2021",
          "code": "E14"
        }, {
          "system": "http://snomed.info/sct",
          "code": "73211009"
        } ]
      },
      "subject": {
        "reference": "Patient/21e0d5b45804d2f5674bb1e505832d4facd6199e84a95c681fc99aaee46d33e9"
      },
      "encounter": {
        "reference": "Encounter/3795d720b91ec62c7e68716234034042ecb39df09e6f80bb13e2e4dd320ee705"
      },
      "_recordedDate": {
        "extension": [ {
          "url": "http://hl7.org/fhir/StructureDefinition/data-absent-reason",
          "valueCode": "unknown"
        } ]
      }
    },
    "request": {
      "method": "POST",
      "url": "Condition",
      "ifNoneExist": "identifier=https://mein.krankenhaus.de/fhir/NamingSystem/conditionId|94b3269e60cb67eb066f6920e8f0ec9153e5ed5f0e6f6ac5931fd4b3b7801c40"
    }
  }, {
    "fullUrl": "Condition/fe486b2038623e2e024fbf036bd476b371135c451e59b8c7dc3bcc0b955d4ede",
    "resource": {
      "resourceType": "Condition",
      "meta": {
        "profile": [ "https://www.netzwerk-universitaetsmedizin.de/fhir/StructureDefinition/malignant-neoplastic-disease" ]
      },
      "identifier": [ {
        "system": "https://mein.krankenhaus.de/fhir/NamingSystem/conditionId",
        "value": "6914db7705f4cae571edd04e1357319cbc53a6e46679d5bc1afc754f11167bcb"
      } ],
      "verificationStatus": {
        "coding": [ {
          "system": "http://terminology.hl7.org/CodeSystem/condition-ver-status",
          "code": "refuted",
          "display": "Refuted"
        }, {
          "system": "http://snomed.info/sct",
          "code": "410594000",
          "display": "Definitely NOT present (qualifier value)"
        } ]
      },
      "category": [ {
        "coding": [ {
          "system": "http://snomed.info/sct",
          "code": "394593009",
          "display": "Medical oncology (qualifier value)"
        } ]
      } ],
      "code": {
        "coding": [ {
          "system": "http://fhir.de/CodeSystem/dimdi/icd-10-gm",
          "version": "2021",
          "code": "C80.9"
        }, {
          "system": "http://snomed.info/sct",
          "code": "363346000"
        } ]
      },
      "subject": {
        "reference": "Patient/21e0d5b45804d2f5674bb1e505832d4facd6199e84a95c681fc99aaee46d33e9"
      },
      "encounter": {
        "reference": "Encounter/3795d720b91ec62c7e68716234034042ecb39df09e6f80bb13e2e4dd320ee705"
      },
      "_recordedDate": {
        "extension": [ {
          "url": "http://hl7.org/fhir/StructureDefinition/data-absent-reason",
          "valueCode": "unknown"
        } ]
      }
    },
    "request": {
      "method": "POST",
      "url": "Condition",
      "ifNoneExist": "identifier=https://mein.krankenhaus.de/fhir/NamingSystem/conditionId|fe486b2038623e2e024fbf036bd476b371135c451e59b8c7dc3bcc0b955d4ede"
    }
  }, {
    "fullUrl": "Condition/229e855221e335531cca94f1fd69adbc01c29ad0ca6e36f3f0b10c18687b3cc1",
    "resource": {
      "resourceType": "Condition",
      "meta": {
        "profile": [ "https://www.netzwerk-universitaetsmedizin.de/fhir/StructureDefinition/chronic-neurological-mental-diseases" ]
      },
      "identifier": [ {
        "system": "https://mein.krankenhaus.de/fhir/NamingSystem/conditionId",
        "value": "8d5fb2004ccc80939aeaf6b43a0601ca6a8eb715d81446fc0612abe53a407c6a"
      } ],
      "verificationStatus": {
        "coding": [ {
          "system": "http://terminology.hl7.org/CodeSystem/condition-ver-status",
          "code": "refuted",
          "display": "Refuted"
        }, {
          "system": "http://snomed.info/sct",
          "code": "410594000",
          "display": "Definitely NOT present (qualifier value)"
        } ]
      },
      "category": [ {
        "coding": [ {
          "system": "http://snomed.info/sct",
          "code": "394591006",
          "display": "Neurology (qualifier value)"
        }, {
          "system": "http://snomed.info/sct",
          "code": "394587001",
          "display": "Psychiatry (qualifier value)"
        } ]
      } ],
      "code": {
        "coding": [ {
          "system": "http://fhir.de/CodeSystem/dimdi/icd-10-gm",
          "version": "2021",
          "code": "G20"
        }, {
          "system": "http://snomed.info/sct",
          "code": "49049000"
        } ]
      },
      "subject": {
        "reference": "Patient/21e0d5b45804d2f5674bb1e505832d4facd6199e84a95c681fc99aaee46d33e9"
      },
      "encounter": {
        "reference": "Encounter/3795d720b91ec62c7e68716234034042ecb39df09e6f80bb13e2e4dd320ee705"
      },
      "_recordedDate": {
        "extension": [ {
          "url": "http://hl7.org/fhir/StructureDefinition/data-absent-reason",
          "valueCode": "unknown"
        } ]
      }
    },
    "request": {
      "method": "POST",
      "url": "Condition",
      "ifNoneExist": "identifier=https://mein.krankenhaus.de/fhir/NamingSystem/conditionId|229e855221e335531cca94f1fd69adbc01c29ad0ca6e36f3f0b10c18687b3cc1"
    }
  }, {
    "fullUrl": "Condition/4d9aaac9ea6937bf6d8435641a78531fb51de740553780bbf7cfa7719d8f5ac6",
    "resource": {
      "resourceType": "Condition",
      "meta": {
        "profile": [ "https://www.netzwerk-universitaetsmedizin.de/fhir/StructureDefinition/chronic-neurological-mental-diseases" ]
      },
      "modifierExtension": [ {
        "url": "https://www.netzwerk-universitaetsmedizin.de/fhir/StructureDefinition/uncertainty-of-presence",
        "valueCodeableConcept": {
          "coding": [ {
            "system": "http://snomed.info/sct",
            "code": "261665006",
            "display": "Unknown (qualifier value)"
          } ],
          "text": "Presence unknown."
        }
      } ],
      "identifier": [ {
        "system": "https://mein.krankenhaus.de/fhir/NamingSystem/conditionId",
        "value": "5de53fbcd40f43c518cb86f4c81fe30810bf4cf48b7438f0e04a8f07ccda6e6c"
      } ],
      "category": [ {
        "coding": [ {
          "system": "http://snomed.info/sct",
          "code": "394591006",
          "display": "Neurology (qualifier value)"
        }, {
          "system": "http://snomed.info/sct",
          "code": "394587001",
          "display": "Psychiatry (qualifier value)"
        } ]
      } ],
      "code": {
        "coding": [ {
          "system": "http://fhir.de/CodeSystem/dimdi/icd-10-gm",
          "version": "2021",
          "code": "F03"
        }, {
          "system": "http://snomed.info/sct",
          "code": "52448006"
        } ]
      },
      "subject": {
        "reference": "Patient/21e0d5b45804d2f5674bb1e505832d4facd6199e84a95c681fc99aaee46d33e9"
      },
      "encounter": {
        "reference": "Encounter/3795d720b91ec62c7e68716234034042ecb39df09e6f80bb13e2e4dd320ee705"
      },
      "_recordedDate": {
        "extension": [ {
          "url": "http://hl7.org/fhir/StructureDefinition/data-absent-reason",
          "valueCode": "unknown"
        } ]
      }
    },
    "request": {
      "method": "POST",
      "url": "Condition",
      "ifNoneExist": "identifier=https://mein.krankenhaus.de/fhir/NamingSystem/conditionId|4d9aaac9ea6937bf6d8435641a78531fb51de740553780bbf7cfa7719d8f5ac6"
    }
  }, {
    "fullUrl": "Condition/9a95adea76b464dd1bbd0a706a624ee103cd95bb6e84c51214d965602273637c",
    "resource": {
      "resourceType": "Condition",
      "meta": {
        "profile": [ "https://www.netzwerk-universitaetsmedizin.de/fhir/StructureDefinition/chronic-neurological-mental-diseases" ]
      },
      "identifier": [ {
        "system": "https://mein.krankenhaus.de/fhir/NamingSystem/conditionId",
        "value": "fc456d45025bba26f5b176dfb128c9929ab087b3f408211d28b67d658304a031"
      } ],
      "clinicalStatus": {
        "coding": [ {
          "system": "http://terminology.hl7.org/CodeSystem/condition-clinical",
          "code": "active",
          "display": "Active"
        } ]
      },
      "verificationStatus": {
        "coding": [ {
          "system": "http://terminology.hl7.org/CodeSystem/condition-ver-status",
          "code": "confirmed",
          "display": "Confirmed"
        }, {
          "system": "http://snomed.info/sct",
          "code": "410605003",
          "display": "Confirmed present (qualifier value)"
        } ]
      },
      "category": [ {
        "coding": [ {
          "system": "http://snomed.info/sct",
          "code": "394591006",
          "display": "Neurology (qualifier value)"
        }, {
          "system": "http://snomed.info/sct",
          "code": "394587001",
          "display": "Psychiatry (qualifier value)"
        } ]
      } ],
      "code": {
        "coding": [ {
          "system": "http://fhir.de/CodeSystem/dimdi/icd-10-gm",
          "version": "2021",
          "code": "G35"
        }, {
          "system": "http://snomed.info/sct",
          "code": "24700007"
        } ]
      },
      "subject": {
        "reference": "Patient/21e0d5b45804d2f5674bb1e505832d4facd6199e84a95c681fc99aaee46d33e9"
      },
      "encounter": {
        "reference": "Encounter/3795d720b91ec62c7e68716234034042ecb39df09e6f80bb13e2e4dd320ee705"
      },
      "_recordedDate": {
        "extension": [ {
          "url": "http://hl7.org/fhir/StructureDefinition/data-absent-reason",
          "valueCode": "unknown"
        } ]
      }
    },
    "request": {
      "method": "POST",
      "url": "Condition",
      "ifNoneExist": "identifier=https://mein.krankenhaus.de/fhir/NamingSystem/conditionId|9a95adea76b464dd1bbd0a706a624ee103cd95bb6e84c51214d965602273637c"
    }
  }, {
    "fullUrl": "Condition/208aba12bbdd592b5bc4a2f429a0ba5e4cf82b2c424073cd21717e7427366f3b",
    "resource": {
      "resourceType": "Condition",
      "meta": {
        "profile": [ "https://www.netzwerk-universitaetsmedizin.de/fhir/StructureDefinition/chronic-neurological-mental-diseases" ]
      },
      "identifier": [ {
        "system": "https://mein.krankenhaus.de/fhir/NamingSystem/conditionId",
        "value": "7c9a2236c9d3146317332c9614f41616792fe29cd68b66ebe1feafe18c922807"
      } ],
      "verificationStatus": {
        "coding": [ {
          "system": "http://terminology.hl7.org/CodeSystem/condition-ver-status",
          "code": "refuted",
          "display": "Refuted"
        }, {
          "system": "http://snomed.info/sct",
          "code": "410594000",
          "display": "Definitely NOT present (qualifier value)"
        } ]
      },
      "category": [ {
        "coding": [ {
          "system": "http://snomed.info/sct",
          "code": "394591006",
          "display": "Neurology (qualifier value)"
        }, {
          "system": "http://snomed.info/sct",
          "code": "394587001",
          "display": "Psychiatry (qualifier value)"
        } ]
      } ],
      "code": {
        "coding": [ {
          "system": "http://fhir.de/CodeSystem/dimdi/icd-10-gm",
          "version": "2021",
          "code": "G70.9"
        }, {
          "system": "http://snomed.info/sct",
          "code": "257277002"
        } ]
      },
      "subject": {
        "reference": "Patient/21e0d5b45804d2f5674bb1e505832d4facd6199e84a95c681fc99aaee46d33e9"
      },
      "encounter": {
        "reference": "Encounter/3795d720b91ec62c7e68716234034042ecb39df09e6f80bb13e2e4dd320ee705"
      },
      "_recordedDate": {
        "extension": [ {
          "url": "http://hl7.org/fhir/StructureDefinition/data-absent-reason",
          "valueCode": "unknown"
        } ]
      }
    },
    "request": {
      "method": "POST",
      "url": "Condition",
      "ifNoneExist": "identifier=https://mein.krankenhaus.de/fhir/NamingSystem/conditionId|208aba12bbdd592b5bc4a2f429a0ba5e4cf82b2c424073cd21717e7427366f3b"
    }
  }, {
    "fullUrl": "Condition/48e7ea33c9b640c4023849d77576bf933e01b222fa9addb14cecb38083ac5dc1",
    "resource": {
      "resourceType": "Condition",
      "meta": {
        "profile": [ "https://www.netzwerk-universitaetsmedizin.de/fhir/StructureDefinition/chronic-neurological-mental-diseases" ]
      },
      "identifier": [ {
        "system": "https://mein.krankenhaus.de/fhir/NamingSystem/conditionId",
        "value": "94f1b0052f20c5db124d7f7574f9c659caef8ce10320c194d99c35f1a2a9c29a"
      } ],
      "clinicalStatus": {
        "coding": [ {
          "system": "http://terminology.hl7.org/CodeSystem/condition-clinical",
          "code": "active",
          "display": "Active"
        } ]
      },
      "verificationStatus": {
        "coding": [ {
          "system": "http://terminology.hl7.org/CodeSystem/condition-ver-status",
          "code": "confirmed",
          "display": "Confirmed"
        }, {
          "system": "http://snomed.info/sct",
          "code": "410605003",
          "display": "Confirmed present (qualifier value)"
        } ]
      },
      "category": [ {
        "coding": [ {
          "system": "http://snomed.info/sct",
          "code": "394591006",
          "display": "Neurology (qualifier value)"
        }, {
          "system": "http://snomed.info/sct",
          "code": "394587001",
          "display": "Psychiatry (qualifier value)"
        } ]
      } ],
      "code": {
        "coding": [ {
          "system": "http://fhir.de/CodeSystem/dimdi/icd-10-gm",
          "version": "2021",
          "code": "G40.9"
        }, {
          "system": "http://snomed.info/sct",
          "code": "84757009"
        } ]
      },
      "subject": {
        "reference": "Patient/21e0d5b45804d2f5674bb1e505832d4facd6199e84a95c681fc99aaee46d33e9"
      },
      "encounter": {
        "reference": "Encounter/3795d720b91ec62c7e68716234034042ecb39df09e6f80bb13e2e4dd320ee705"
      },
      "_recordedDate": {
        "extension": [ {
          "url": "http://hl7.org/fhir/StructureDefinition/data-absent-reason",
          "valueCode": "unknown"
        } ]
      }
    },
    "request": {
      "method": "POST",
      "url": "Condition",
      "ifNoneExist": "identifier=https://mein.krankenhaus.de/fhir/NamingSystem/conditionId|48e7ea33c9b640c4023849d77576bf933e01b222fa9addb14cecb38083ac5dc1"
    }
  }, {
    "fullUrl": "Condition/11803d5a3223842c393816d2e9cc9d7b67cbe9639b4f8beed0c44528b16dd872",
    "resource": {
      "resourceType": "Condition",
      "meta": {
        "profile": [ "https://www.netzwerk-universitaetsmedizin.de/fhir/StructureDefinition/chronic-neurological-mental-diseases" ]
      },
      "identifier": [ {
        "system": "https://mein.krankenhaus.de/fhir/NamingSystem/conditionId",
        "value": "6be9897f4efb118bb01b9a2d7eaa00146a69edacd3b4c8cf83ff4d6e884d5c3c"
      } ],
      "verificationStatus": {
        "coding": [ {
          "system": "http://terminology.hl7.org/CodeSystem/condition-ver-status",
          "code": "refuted",
          "display": "Refuted"
        }, {
          "system": "http://snomed.info/sct",
          "code": "410594000",
          "display": "Definitely NOT present (qualifier value)"
        } ]
      },
      "category": [ {
        "coding": [ {
          "system": "http://snomed.info/sct",
          "code": "394591006",
          "display": "Neurology (qualifier value)"
        }, {
          "system": "http://snomed.info/sct",
          "code": "394587001",
          "display": "Psychiatry (qualifier value)"
        } ]
      } ],
      "code": {
        "coding": [ {
          "system": "http://fhir.de/CodeSystem/dimdi/icd-10-gm",
          "version": "2021",
          "code": "G43.9"
        }, {
          "system": "http://snomed.info/sct",
          "code": "37796009"
        } ]
      },
      "subject": {
        "reference": "Patient/21e0d5b45804d2f5674bb1e505832d4facd6199e84a95c681fc99aaee46d33e9"
      },
      "encounter": {
        "reference": "Encounter/3795d720b91ec62c7e68716234034042ecb39df09e6f80bb13e2e4dd320ee705"
      },
      "_recordedDate": {
        "extension": [ {
          "url": "http://hl7.org/fhir/StructureDefinition/data-absent-reason",
          "valueCode": "unknown"
        } ]
      }
    },
    "request": {
      "method": "POST",
      "url": "Condition",
      "ifNoneExist": "identifier=https://mein.krankenhaus.de/fhir/NamingSystem/conditionId|11803d5a3223842c393816d2e9cc9d7b67cbe9639b4f8beed0c44528b16dd872"
    }
  }, {
    "fullUrl": "Condition/b1db9adcea1993f39c01b4c0161558800da95f21a6b991cdc318533142be86eb",
    "resource": {
      "resourceType": "Condition",
      "meta": {
        "profile": [ "https://www.netzwerk-universitaetsmedizin.de/fhir/StructureDefinition/chronic-neurological-mental-diseases" ]
      },
      "identifier": [ {
        "system": "https://mein.krankenhaus.de/fhir/NamingSystem/conditionId",
        "value": "ca62cc3f8e77e2be1ed1ab5cf26772ccc9dde78d427891cb18877f3f0c72e73a"
      } ],
      "verificationStatus": {
        "coding": [ {
          "system": "http://terminology.hl7.org/CodeSystem/condition-ver-status",
          "code": "refuted",
          "display": "Refuted"
        }, {
          "system": "http://snomed.info/sct",
          "code": "410594000",
          "display": "Definitely NOT present (qualifier value)"
        } ]
      },
      "category": [ {
        "coding": [ {
          "system": "http://snomed.info/sct",
          "code": "394591006",
          "display": "Neurology (qualifier value)"
        }, {
          "system": "http://snomed.info/sct",
          "code": "394587001",
          "display": "Psychiatry (qualifier value)"
        } ]
      } ],
      "code": {
        "coding": [ {
          "system": "http://fhir.de/CodeSystem/dimdi/icd-10-gm",
          "version": "2021",
          "code": "I69.4"
        }, {
          "system": "http://snomed.info/sct",
          "code": "440140008"
        } ]
      },
      "subject": {
        "reference": "Patient/21e0d5b45804d2f5674bb1e505832d4facd6199e84a95c681fc99aaee46d33e9"
      },
      "encounter": {
        "reference": "Encounter/3795d720b91ec62c7e68716234034042ecb39df09e6f80bb13e2e4dd320ee705"
      },
      "_recordedDate": {
        "extension": [ {
          "url": "http://hl7.org/fhir/StructureDefinition/data-absent-reason",
          "valueCode": "unknown"
        } ]
      }
    },
    "request": {
      "method": "POST",
      "url": "Condition",
      "ifNoneExist": "identifier=https://mein.krankenhaus.de/fhir/NamingSystem/conditionId|b1db9adcea1993f39c01b4c0161558800da95f21a6b991cdc318533142be86eb"
    }
  }, {
    "fullUrl": "Condition/b0004f45d6eeee0444291000237d580383477a8dbdb018056bbd28ad91bbe136",
    "resource": {
      "resourceType": "Condition",
      "meta": {
        "profile": [ "https://www.netzwerk-universitaetsmedizin.de/fhir/StructureDefinition/chronic-neurological-mental-diseases" ]
      },
      "identifier": [ {
        "system": "https://mein.krankenhaus.de/fhir/NamingSystem/conditionId",
        "value": "feee48dcb9c5bb00b55c51ac66e0c843376db5e9dce4592bb70ac215fbaa3bce"
      } ],
      "verificationStatus": {
        "coding": [ {
          "system": "http://terminology.hl7.org/CodeSystem/condition-ver-status",
          "code": "refuted",
          "display": "Refuted"
        }, {
          "system": "http://snomed.info/sct",
          "code": "410594000",
          "display": "Definitely NOT present (qualifier value)"
        } ]
      },
      "category": [ {
        "coding": [ {
          "system": "http://snomed.info/sct",
          "code": "394591006",
          "display": "Neurology (qualifier value)"
        }, {
          "system": "http://snomed.info/sct",
          "code": "394587001",
          "display": "Psychiatry (qualifier value)"
        } ]
      } ],
      "code": {
        "coding": [ {
          "system": "http://fhir.de/CodeSystem/dimdi/icd-10-gm",
          "version": "2021",
          "code": "Z86.7"
        }, {
          "system": "http://snomed.info/sct",
          "code": "429993008"
        } ]
      },
      "subject": {
        "reference": "Patient/21e0d5b45804d2f5674bb1e505832d4facd6199e84a95c681fc99aaee46d33e9"
      },
      "encounter": {
        "reference": "Encounter/3795d720b91ec62c7e68716234034042ecb39df09e6f80bb13e2e4dd320ee705"
      },
      "_recordedDate": {
        "extension": [ {
          "url": "http://hl7.org/fhir/StructureDefinition/data-absent-reason",
          "valueCode": "unknown"
        } ]
      }
    },
    "request": {
      "method": "POST",
      "url": "Condition",
      "ifNoneExist": "identifier=https://mein.krankenhaus.de/fhir/NamingSystem/conditionId|b0004f45d6eeee0444291000237d580383477a8dbdb018056bbd28ad91bbe136"
    }
  }, {
    "fullUrl": "Condition/71b7c7a2424deb3b93dae971ad6b0bf5ad1d7740cde862badba3d87d9f919b00",
    "resource": {
      "resourceType": "Condition",
      "meta": {
        "profile": [ "https://www.netzwerk-universitaetsmedizin.de/fhir/StructureDefinition/chronic-neurological-mental-diseases" ]
      },
      "identifier": [ {
        "system": "https://mein.krankenhaus.de/fhir/NamingSystem/conditionId",
        "value": "52a331f8166271b69b233399b799db2bf98db8e2a65fef3021438c9f97838e85"
      } ],
      "verificationStatus": {
        "coding": [ {
          "system": "http://terminology.hl7.org/CodeSystem/condition-ver-status",
          "code": "refuted",
          "display": "Refuted"
        }, {
          "system": "http://snomed.info/sct",
          "code": "410594000",
          "display": "Definitely NOT present (qualifier value)"
        } ]
      },
      "category": [ {
        "coding": [ {
          "system": "http://snomed.info/sct",
          "code": "394591006",
          "display": "Neurology (qualifier value)"
        }, {
          "system": "http://snomed.info/sct",
          "code": "394587001",
          "display": "Psychiatry (qualifier value)"
        } ]
      } ],
      "code": {
        "coding": [ {
          "system": "http://fhir.de/CodeSystem/dimdi/icd-10-gm",
          "version": "2021",
          "code": "F29"
        }, {
          "system": "http://snomed.info/sct",
          "code": "69322001"
        } ]
      },
      "subject": {
        "reference": "Patient/21e0d5b45804d2f5674bb1e505832d4facd6199e84a95c681fc99aaee46d33e9"
      },
      "encounter": {
        "reference": "Encounter/3795d720b91ec62c7e68716234034042ecb39df09e6f80bb13e2e4dd320ee705"
      },
      "_recordedDate": {
        "extension": [ {
          "url": "http://hl7.org/fhir/StructureDefinition/data-absent-reason",
          "valueCode": "unknown"
        } ]
      }
    },
    "request": {
      "method": "POST",
      "url": "Condition",
      "ifNoneExist": "identifier=https://mein.krankenhaus.de/fhir/NamingSystem/conditionId|71b7c7a2424deb3b93dae971ad6b0bf5ad1d7740cde862badba3d87d9f919b00"
    }
  }, {
    "fullUrl": "Condition/3a25f39cb0e4229065246e101f96d1dae818bc94e27621f531c3c49204f0e4ad",
    "resource": {
      "resourceType": "Condition",
      "meta": {
        "profile": [ "https://www.netzwerk-universitaetsmedizin.de/fhir/StructureDefinition/chronic-neurological-mental-diseases" ]
      },
      "identifier": [ {
        "system": "https://mein.krankenhaus.de/fhir/NamingSystem/conditionId",
        "value": "1bbadfab157981177e1ceee4ee0ee25e26c2940194e312c2d786076436f0500c"
      } ],
      "clinicalStatus": {
        "coding": [ {
          "system": "http://terminology.hl7.org/CodeSystem/condition-clinical",
          "code": "active",
          "display": "Active"
        } ]
      },
      "verificationStatus": {
        "coding": [ {
          "system": "http://terminology.hl7.org/CodeSystem/condition-ver-status",
          "code": "confirmed",
          "display": "Confirmed"
        }, {
          "system": "http://snomed.info/sct",
          "code": "410605003",
          "display": "Confirmed present (qualifier value)"
        } ]
      },
      "category": [ {
        "coding": [ {
          "system": "http://snomed.info/sct",
          "code": "394591006",
          "display": "Neurology (qualifier value)"
        }, {
          "system": "http://snomed.info/sct",
          "code": "394587001",
          "display": "Psychiatry (qualifier value)"
        } ]
      } ],
      "code": {
        "coding": [ {
          "system": "http://fhir.de/CodeSystem/dimdi/icd-10-gm",
          "version": "2021",
          "code": "F32.9"
        }, {
          "system": "http://snomed.info/sct",
          "code": "35489007"
        } ]
      },
      "subject": {
        "reference": "Patient/21e0d5b45804d2f5674bb1e505832d4facd6199e84a95c681fc99aaee46d33e9"
      },
      "encounter": {
        "reference": "Encounter/3795d720b91ec62c7e68716234034042ecb39df09e6f80bb13e2e4dd320ee705"
      },
      "_recordedDate": {
        "extension": [ {
          "url": "http://hl7.org/fhir/StructureDefinition/data-absent-reason",
          "valueCode": "unknown"
        } ]
      }
    },
    "request": {
      "method": "POST",
      "url": "Condition",
      "ifNoneExist": "identifier=https://mein.krankenhaus.de/fhir/NamingSystem/conditionId|3a25f39cb0e4229065246e101f96d1dae818bc94e27621f531c3c49204f0e4ad"
    }
  }, {
    "fullUrl": "Condition/b920e182209052cfa192fd30f2764420bf23dca590fd89db5c7bd9e599441d88",
    "resource": {
      "resourceType": "Condition",
      "meta": {
        "profile": [ "https://www.netzwerk-universitaetsmedizin.de/fhir/StructureDefinition/chronic-neurological-mental-diseases" ]
      },
      "modifierExtension": [ {
        "url": "https://www.netzwerk-universitaetsmedizin.de/fhir/StructureDefinition/uncertainty-of-presence",
        "valueCodeableConcept": {
          "coding": [ {
            "system": "http://snomed.info/sct",
            "code": "261665006",
            "display": "Unknown (qualifier value)"
          } ],
          "text": "Presence unknown."
        }
      } ],
      "identifier": [ {
        "system": "https://mein.krankenhaus.de/fhir/NamingSystem/conditionId",
        "value": "09a3656ac431a466316262d33d5b8809d5c4a3720554a1d0adb070121ff65184"
      } ],
      "category": [ {
        "coding": [ {
          "system": "http://snomed.info/sct",
          "code": "394591006",
          "display": "Neurology (qualifier value)"
        }, {
          "system": "http://snomed.info/sct",
          "code": "394587001",
          "display": "Psychiatry (qualifier value)"
        } ]
      } ],
      "code": {
        "coding": [ {
          "system": "http://fhir.de/CodeSystem/dimdi/icd-10-gm",
          "version": "2021",
          "code": "F41.9"
        }, {
          "system": "http://snomed.info/sct",
          "code": "197480006"
        } ]
      },
      "subject": {
        "reference": "Patient/21e0d5b45804d2f5674bb1e505832d4facd6199e84a95c681fc99aaee46d33e9"
      },
      "encounter": {
        "reference": "Encounter/3795d720b91ec62c7e68716234034042ecb39df09e6f80bb13e2e4dd320ee705"
      },
      "_recordedDate": {
        "extension": [ {
          "url": "http://hl7.org/fhir/StructureDefinition/data-absent-reason",
          "valueCode": "unknown"
        } ]
      }
    },
    "request": {
      "method": "POST",
      "url": "Condition",
      "ifNoneExist": "identifier=https://mein.krankenhaus.de/fhir/NamingSystem/conditionId|b920e182209052cfa192fd30f2764420bf23dca590fd89db5c7bd9e599441d88"
    }
  }, {
    "fullUrl": "Condition/2077c826b0f1185f4dff70cd2aae9e6c763da061af3dbaf5af80c307ecfad76f",
    "resource": {
      "resourceType": "Condition",
      "meta": {
        "profile": [ "https://www.netzwerk-universitaetsmedizin.de/fhir/StructureDefinition/gastrointestinal-ulcers" ]
      },
      "identifier": [ {
        "system": "https://mein.krankenhaus.de/fhir/NamingSystem/conditionId",
        "value": "1be298604cc1e3baef1199258a88994e725f3e76ff58000af3b8b9b2538cb0c5"
      } ],
      "clinicalStatus": {
        "coding": [ {
          "system": "http://terminology.hl7.org/CodeSystem/condition-clinical",
          "code": "active",
          "display": "Active"
        } ]
      },
      "verificationStatus": {
        "coding": [ {
          "system": "http://terminology.hl7.org/CodeSystem/condition-ver-status",
          "code": "confirmed",
          "display": "Confirmed"
        }, {
          "system": "http://snomed.info/sct",
          "code": "410605003",
          "display": "Confirmed present (qualifier value)"
        } ]
      },
      "category": [ {
        "coding": [ {
          "system": "http://snomed.info/sct",
          "code": "394584008",
          "display": "Gastroenterology (qualifier value))"
        } ]
      } ],
      "code": {
        "coding": [ {
          "system": "http://fhir.de/CodeSystem/dimdi/icd-10-gm",
          "version": "2021",
          "code": "K28"
        }, {
          "system": "http://snomed.info/sct",
          "code": "40845000"
        } ]
      },
      "subject": {
        "reference": "Patient/21e0d5b45804d2f5674bb1e505832d4facd6199e84a95c681fc99aaee46d33e9"
      },
      "encounter": {
        "reference": "Encounter/3795d720b91ec62c7e68716234034042ecb39df09e6f80bb13e2e4dd320ee705"
      },
      "_recordedDate": {
        "extension": [ {
          "url": "http://hl7.org/fhir/StructureDefinition/data-absent-reason",
          "valueCode": "unknown"
        } ]
      }
    },
    "request": {
      "method": "POST",
      "url": "Condition",
      "ifNoneExist": "identifier=https://mein.krankenhaus.de/fhir/NamingSystem/conditionId|2077c826b0f1185f4dff70cd2aae9e6c763da061af3dbaf5af80c307ecfad76f"
    }
  }, {
    "fullUrl": "Observation/2481b2d9a335c600ed35c766208362d7874440bfd37f93c91c02728e7b32dc21",
    "resource": {
      "resourceType": "Observation",
      "meta": {
        "profile": [ "https://www.netzwerk-universitaetsmedizin.de/fhir/StructureDefinition/smoking-status" ]
      },
      "identifier": [ {
        "system": "https://mein.krankenhaus.de/fhir/NamingSystem/observationId",
        "value": "05c9f9d94a495cfd442dddb11ae4b699fbd2cec14d12bfb16836f96fcbc4d394"
      } ],
      "status": "final",
      "category": [ {
        "coding": [ {
          "system": "http://terminology.hl7.org/CodeSystem/observation-category",
          "code": "social-history",
          "display": "Social History"
        } ]
      } ],
      "code": {
        "coding": [ {
          "system": "http://loinc.org",
          "code": "72166-2"
        } ]
      },
      "subject": {
        "reference": "Patient/21e0d5b45804d2f5674bb1e505832d4facd6199e84a95c681fc99aaee46d33e9"
      },
      "encounter": {
        "reference": "Encounter/3795d720b91ec62c7e68716234034042ecb39df09e6f80bb13e2e4dd320ee705"
      },
      "_effectiveDateTime": {
        "extension": [ {
          "url": "http://hl7.org/fhir/StructureDefinition/data-absent-reason",
          "valueCode": "unknown"
        } ]
      },
      "valueCodeableConcept": {
        "coding": [ {
          "system": "http://loinc.org",
          "code": "LA18980-5"
        } ]
      }
    },
    "request": {
      "method": "POST",
      "url": "Observation",
      "ifNoneExist": "identifier=https://mein.krankenhaus.de/fhir/NamingSystem/observationId|2481b2d9a335c600ed35c766208362d7874440bfd37f93c91c02728e7b32dc21"
    }
  }, {
    "fullUrl": "Procedure/63be2276ab00d120a0f0a5b17ea2eb7e1e73faa72a4ced77f29bce6a61e3d417",
    "resource": {
      "resourceType": "Procedure",
      "meta": {
        "profile": [ "https://www.netzwerk-universitaetsmedizin.de/fhir/StructureDefinition/respiratory-therapies" ]
      },
      "identifier": [ {
        "system": "https://mein.krankenhaus.de/fhir/NamingSystem/procedureId",
        "value": "9a51ebbaa8dad059e9bbbeadc85edd64633c652114f9e64bea000b92de4ee4ab"
      } ],
      "status": "unknown",
      "category": {
        "coding": [ {
          "system": "http://snomed.info/sct",
          "code": "277132007",
          "display": "Therapeutic procedure (procedure)"
        } ]
      },
      "code": {
        "coding": [ {
          "system": "http://snomed.info/sct",
          "code": "53950000"
        } ]
      },
      "subject": {
        "reference": "Patient/21e0d5b45804d2f5674bb1e505832d4facd6199e84a95c681fc99aaee46d33e9"
      },
      "encounter": {
        "reference": "Encounter/3795d720b91ec62c7e68716234034042ecb39df09e6f80bb13e2e4dd320ee705"
      },
      "_performedDateTime": {
        "extension": [ {
          "url": "http://hl7.org/fhir/StructureDefinition/data-absent-reason",
          "valueCode": "unknown"
        } ]
      }
    },
    "request": {
      "method": "POST",
      "url": "Procedure",
      "ifNoneExist": "identifier=https://mein.krankenhaus.de/fhir/NamingSystem/procedureId|63be2276ab00d120a0f0a5b17ea2eb7e1e73faa72a4ced77f29bce6a61e3d417"
    }
  }, {
    "fullUrl": "Immunization/b8358f0747bb506f2a1b89d1c919b44bd4fe0660c9c88d20ad1242ea7eaf86d2",
    "resource": {
      "resourceType": "Immunization",
      "meta": {
        "profile": [ "https://www.netzwerk-universitaetsmedizin.de/fhir/StructureDefinition/immunization" ]
      },
      "identifier": [ {
        "system": "https://mein.krankenhaus.de/fhir/NamingSystem/immunizationId",
        "value": "cf525795942703cc50c7a15f7eafd26b0dd14754eca8ea3dc1760dc6c436b252"
      } ],
      "status": "not-done",
      "vaccineCode": {
        "coding": [ {
          "system": "http://snomed.info/sct",
          "code": "836377006"
        } ]
      },
      "patient": {
        "reference": "Patient/21e0d5b45804d2f5674bb1e505832d4facd6199e84a95c681fc99aaee46d33e9"
      },
      "encounter": {
        "reference": "Encounter/3795d720b91ec62c7e68716234034042ecb39df09e6f80bb13e2e4dd320ee705"
      },
      "_occurrenceDateTime": {
        "extension": [ {
          "url": "http://hl7.org/fhir/StructureDefinition/data-absent-reason",
          "valueCode": "unknown"
        } ]
      },
      "protocolApplied": [ {
        "targetDisease": [ {
          "coding": [ {
            "system": "http://snomed.info/sct",
            "code": "6142004"
          } ]
        } ],
        "_doseNumberString": {
          "extension": [ {
            "url": "http://hl7.org/fhir/StructureDefinition/data-absent-reason",
            "valueCode": "unknown"
          } ]
        }
      } ]
    },
    "request": {
      "method": "POST",
      "url": "Immunization",
      "ifNoneExist": "identifier=https://mein.krankenhaus.de/fhir/NamingSystem/immunizationId|b8358f0747bb506f2a1b89d1c919b44bd4fe0660c9c88d20ad1242ea7eaf86d2"
    }
  }, {
    "fullUrl": "Immunization/a0abf7682c998131387ba81dd137a75ef094a073859b67cfd467fa944bfda6c2",
    "resource": {
      "resourceType": "Immunization",
      "meta": {
        "profile": [ "https://www.netzwerk-universitaetsmedizin.de/fhir/StructureDefinition/immunization" ]
      },
      "identifier": [ {
        "system": "https://mein.krankenhaus.de/fhir/NamingSystem/immunizationId",
        "value": "489e1621322e586e664119b2dd7e7ac94939eeadf3ad01690f62b8db0fcc5347"
      } ],
      "status": "completed",
      "vaccineCode": {
        "coding": [ {
          "system": "http://snomed.info/sct",
          "code": "836398006"
        } ]
      },
      "patient": {
        "reference": "Patient/21e0d5b45804d2f5674bb1e505832d4facd6199e84a95c681fc99aaee46d33e9"
      },
      "encounter": {
        "reference": "Encounter/3795d720b91ec62c7e68716234034042ecb39df09e6f80bb13e2e4dd320ee705"
      },
      "occurrenceDateTime": "2020-12-28",
      "protocolApplied": [ {
        "targetDisease": [ {
          "coding": [ {
            "system": "http://snomed.info/sct",
            "code": "16814004"
          } ]
        } ],
        "_doseNumberString": {
          "extension": [ {
            "url": "http://hl7.org/fhir/StructureDefinition/data-absent-reason",
            "valueCode": "unknown"
          } ]
        }
      } ]
    },
    "request": {
      "method": "POST",
      "url": "Immunization",
      "ifNoneExist": "identifier=https://mein.krankenhaus.de/fhir/NamingSystem/immunizationId|a0abf7682c998131387ba81dd137a75ef094a073859b67cfd467fa944bfda6c2"
    }
  }, {
    "fullUrl": "Immunization/57ca8c16626f27619d73a58f9cd4607c0ed3eaef06f9b101e1e1e2aa48f9cf59",
    "resource": {
      "resourceType": "Immunization",
      "meta": {
        "profile": [ "https://www.netzwerk-universitaetsmedizin.de/fhir/StructureDefinition/immunization" ]
      },
      "identifier": [ {
        "system": "https://mein.krankenhaus.de/fhir/NamingSystem/immunizationId",
        "value": "c8d4d1b727c585fda5dd14dac2360367a361d7ee4585f879bbee1ac95162bf54"
      } ],
      "status": "completed",
      "vaccineCode": {
        "coding": [ {
          "system": "http://snomed.info/sct",
          "code": "836402002"
        } ]
      },
      "patient": {
        "reference": "Patient/21e0d5b45804d2f5674bb1e505832d4facd6199e84a95c681fc99aaee46d33e9"
      },
      "encounter": {
        "reference": "Encounter/3795d720b91ec62c7e68716234034042ecb39df09e6f80bb13e2e4dd320ee705"
      },
      "_occurrenceDateTime": {
        "extension": [ {
          "url": "http://hl7.org/fhir/StructureDefinition/data-absent-reason",
          "valueCode": "unknown"
        } ]
      },
      "protocolApplied": [ {
        "targetDisease": [ {
          "coding": [ {
            "system": "http://snomed.info/sct",
            "code": "56717001"
          } ]
        } ],
        "_doseNumberString": {
          "extension": [ {
            "url": "http://hl7.org/fhir/StructureDefinition/data-absent-reason",
            "valueCode": "unknown"
          } ]
        }
      } ]
    },
    "request": {
      "method": "POST",
      "url": "Immunization",
      "ifNoneExist": "identifier=https://mein.krankenhaus.de/fhir/NamingSystem/immunizationId|57ca8c16626f27619d73a58f9cd4607c0ed3eaef06f9b101e1e1e2aa48f9cf59"
    }
  }, {
    "fullUrl": "Immunization/87fbb94bebb7bd1d39b88b50f1a3ce62506db9490ac14644d6db7779187a3933",
    "resource": {
      "resourceType": "Immunization",
      "meta": {
        "profile": [ "https://www.netzwerk-universitaetsmedizin.de/fhir/StructureDefinition/immunization" ]
      },
      "identifier": [ {
        "system": "https://mein.krankenhaus.de/fhir/NamingSystem/immunizationId",
        "value": "d025556316c245a5a6aad02aacd234c430080ad1ad20006c986a06f28653aa49"
      } ],
      "status": "completed",
      "vaccineCode": {
        "coding": [ {
          "system": "http://snomed.info/sct",
          "code": "1119349007"
        } ]
      },
      "patient": {
        "reference": "Patient/21e0d5b45804d2f5674bb1e505832d4facd6199e84a95c681fc99aaee46d33e9"
      },
      "encounter": {
        "reference": "Encounter/3795d720b91ec62c7e68716234034042ecb39df09e6f80bb13e2e4dd320ee705"
      },
      "occurrenceDateTime": "2020-12-08",
      "protocolApplied": [ {
        "targetDisease": [ {
          "coding": [ {
            "system": "http://snomed.info/sct",
            "code": "840539006"
          } ]
        } ],
        "_doseNumberString": {
          "extension": [ {
            "url": "http://hl7.org/fhir/StructureDefinition/data-absent-reason",
            "valueCode": "unknown"
          } ]
        }
      } ]
    },
    "request": {
      "method": "POST",
      "url": "Immunization",
      "ifNoneExist": "identifier=https://mein.krankenhaus.de/fhir/NamingSystem/immunizationId|87fbb94bebb7bd1d39b88b50f1a3ce62506db9490ac14644d6db7779187a3933"
    }
  }, {
    "fullUrl": "Immunization/c0356a75c8fd4c5d29fddde8634c39a1bcf97c7d7c9a67541ceaf6993e2de1db",
    "resource": {
      "resourceType": "Immunization",
      "meta": {
        "profile": [ "https://www.netzwerk-universitaetsmedizin.de/fhir/StructureDefinition/immunization" ]
      },
      "identifier": [ {
        "system": "https://mein.krankenhaus.de/fhir/NamingSystem/immunizationId",
        "value": "89afb804dfc35f700f321002ed9bdc5aadff3c03093cefa21d7e25470abe2c8e"
      } ],
      "status": "not-done",
      "vaccineCode": {
        "coding": [ {
          "system": "http://hl7.org/fhir/uv/ips/CodeSystem/absent-unknown-uv-ips",
          "code": "no-known-immunizations",
          "display": "vaccineCode unknown"
        } ]
      },
      "patient": {
        "reference": "Patient/21e0d5b45804d2f5674bb1e505832d4facd6199e84a95c681fc99aaee46d33e9"
      },
      "encounter": {
        "reference": "Encounter/3795d720b91ec62c7e68716234034042ecb39df09e6f80bb13e2e4dd320ee705"
      },
      "_occurrenceDateTime": {
        "extension": [ {
          "url": "http://hl7.org/fhir/StructureDefinition/data-absent-reason",
          "valueCode": "unknown"
        } ]
      },
      "protocolApplied": [ {
        "targetDisease": [ {
          "coding": [ {
            "system": "http://snomed.info/sct",
            "code": "64572001",
            "display": "targetDisease unknown"
          } ]
        } ],
        "_doseNumberString": {
          "extension": [ {
            "url": "http://hl7.org/fhir/StructureDefinition/data-absent-reason",
            "valueCode": "unknown"
          } ]
        }
      } ]
    },
    "request": {
      "method": "POST",
      "url": "Immunization",
      "ifNoneExist": "identifier=https://mein.krankenhaus.de/fhir/NamingSystem/immunizationId|c0356a75c8fd4c5d29fddde8634c39a1bcf97c7d7c9a67541ceaf6993e2de1db"
    }
  }, {
    "fullUrl": "Consent/4399603722d8b6419d7b6681019990b9ff6fc15dfd7284519a4d5a3c1b6f628b",
    "resource": {
      "resourceType": "Consent",
      "meta": {
        "profile": [ "https://www.netzwerk-universitaetsmedizin.de/fhir/StructureDefinition/do-not-resuscitate-order" ]
      },
      "identifier": [ {
        "system": "https://mein.krankenhaus.de/fhir/NamingSystem/consentId",
        "value": "a68ffa9fde3419e08f507908707f99edcbfec3b8719cb9a6abe853b98de81892"
      } ],
      "status": "active",
      "scope": {
        "coding": [ {
          "system": "http://terminology.hl7.org/CodeSystem/consentscope",
          "code": "adr",
          "display": "Advanced Care Directive"
        } ]
      },
      "category": [ {
        "coding": [ {
          "system": "http://terminology.hl7.org/CodeSystem/consentcategorycodes",
          "code": "dnr",
          "display": "Do Not Resuscitate"
        } ]
      } ],
      "patient": {
        "reference": "Patient/21e0d5b45804d2f5674bb1e505832d4facd6199e84a95c681fc99aaee46d33e9"
      },
      "policy": [ {
        "uri": "https://www.aerzteblatt.de/archiv/65440/DNR-Anordnungen-Das-fehlende-Bindeglied"
      } ],
      "provision": {
        "code": [ {
          "coding": [ {
            "system": "http://snomed.info/sct",
            "code": "304252001"
          } ]
        } ]
      }
    },
    "request": {
      "method": "POST",
      "url": "Consent",
      "ifNoneExist": "identifier=https://mein.krankenhaus.de/fhir/NamingSystem/consentId|4399603722d8b6419d7b6681019990b9ff6fc15dfd7284519a4d5a3c1b6f628b"
    }
  }, {
    "fullUrl": "Observation/8ba3776ced4612a21d89f6ce99d8291446a6c67067107fa751d0341cf50319ff",
    "resource": {
      "resourceType": "Observation",
      "meta": {
        "profile": [ "https://www.netzwerk-universitaetsmedizin.de/fhir/StructureDefinition/sex-assigned-at-birth" ]
      },
      "identifier": [ {
        "system": "https://mein.krankenhaus.de/fhir/NamingSystem/observationId",
        "value": "2fb5e10a2d24e4127e4cc68ddf3914f41786d395ddc554bd93057c5bdb5112be"
      } ],
      "status": "final",
      "category": [ {
        "coding": [ {
          "system": "http://terminology.hl7.org/CodeSystem/observation-category",
          "code": "social-history",
          "display": "Social History"
        } ]
      } ],
      "code": {
        "coding": [ {
          "system": "http://loinc.org",
          "code": "76689-9"
        } ]
      },
      "subject": {
        "reference": "Patient/21e0d5b45804d2f5674bb1e505832d4facd6199e84a95c681fc99aaee46d33e9"
      },
      "encounter": {
        "reference": "Encounter/3795d720b91ec62c7e68716234034042ecb39df09e6f80bb13e2e4dd320ee705"
      },
      "_effectiveDateTime": {
        "extension": [ {
          "url": "http://hl7.org/fhir/StructureDefinition/data-absent-reason",
          "valueCode": "unknown"
        } ]
      },
      "valueCodeableConcept": {
        "coding": [ {
          "system": "http://hl7.org/fhir/administrative-gender",
          "code": "unknown"
        } ]
      }
    },
    "request": {
      "method": "POST",
      "url": "Observation",
      "ifNoneExist": "identifier=https://mein.krankenhaus.de/fhir/NamingSystem/observationId|8ba3776ced4612a21d89f6ce99d8291446a6c67067107fa751d0341cf50319ff"
    }
  }, {
    "fullUrl": "Observation/c17cea20c47488cfa94409f8bb16209a065d56ad87e623fb40d0dc20bcc2c249",
    "resource": {
      "resourceType": "Observation",
      "meta": {
        "profile": [ "https://www.netzwerk-universitaetsmedizin.de/fhir/StructureDefinition/frailty-score" ]
      },
      "identifier": [ {
        "type": {
          "coding": [ {
            "system": "http://terminology.hl7.org/CodeSystem/v2-0203",
            "code": "OBI",
            "display": "Observation Instance Identifier"
          } ]
        },
        "system": "https://mein.krankenhaus.de/fhir/NamingSystem/observationId",
        "value": "ad728c050fed261a90c7d7c5a180201d2a1f61695154c52efea01c8b49a25e46",
        "assigner": {
          "reference": "Organization/3a4f3433bce81181bad2d8e0b8fafccf7dc800bc06f29be73dcb38b750a48f9a"
        }
      } ],
      "status": "final",
      "category": [ {
        "coding": [ {
          "system": "http://terminology.hl7.org/CodeSystem/observation-category",
          "code": "survey",
          "display": "Survey"
        } ]
      } ],
      "code": {
        "coding": [ {
          "system": "http://snomed.info/sct",
          "code": "763264000"
        } ],
        "text": "Frailty Scale Score"
      },
      "subject": {
        "reference": "Patient/21e0d5b45804d2f5674bb1e505832d4facd6199e84a95c681fc99aaee46d33e9"
      },
      "encounter": {
        "reference": "Encounter/3795d720b91ec62c7e68716234034042ecb39df09e6f80bb13e2e4dd320ee705"
      },
      "_effectiveDateTime": {
        "extension": [ {
          "url": "http://hl7.org/fhir/StructureDefinition/data-absent-reason",
          "valueCode": "unknown"
        } ]
      },
      "valueCodeableConcept": {
        "coding": [ {
          "system": "https://www.netzwerk-universitaetsmedizin.de/fhir/CodeSystem/frailty-score",
          "code": "4"
        } ]
      },
      "method": {
        "coding": [ {
          "system": "http://snomed.info/sct",
          "code": "445414007",
          "display": "Canadian Study of Health and Aging clinical frailty scale"
        } ]
      }
    },
    "request": {
      "method": "POST",
      "url": "Observation",
      "ifNoneExist": "identifier=https://mein.krankenhaus.de/fhir/NamingSystem/observationId|c17cea20c47488cfa94409f8bb16209a065d56ad87e623fb40d0dc20bcc2c249"
    }
  }, {
    "fullUrl": "Observation/b9587baa9ca680f6ba88b0dc777400fbc48ab5ab40b3ab4c7f24ea61e23b1dfd",
    "resource": {
      "resourceType": "Observation",
      "meta": {
        "profile": [ "https://www.netzwerk-universitaetsmedizin.de/fhir/StructureDefinition/body-weight" ]
      },
      "identifier": [ {
        "type": {
          "coding": [ {
            "system": "http://terminology.hl7.org/CodeSystem/v2-0203",
            "code": "OBI",
            "display": "Observation Instance Identifier"
          } ]
        },
        "system": "https://mein.krankenhaus.de/fhir/NamingSystem/observationId",
        "value": "5518b71e91d1a55ccf5db4f9c25c497052028a8027b91c89a9a82f40f2d53038",
        "assigner": {
          "reference": "Organization/3a4f3433bce81181bad2d8e0b8fafccf7dc800bc06f29be73dcb38b750a48f9a"
        }
      } ],
      "status": "final",
      "category": [ {
        "coding": [ {
          "system": "http://terminology.hl7.org/CodeSystem/observation-category",
          "code": "vital-signs",
          "display": "Vital Signs"
        } ]
      } ],
      "code": {
        "coding": [ {
          "system": "http://loinc.org",
          "code": "29463-7"
        }, {
          "system": "http://snomed.info/sct",
          "code": "27113001"
        } ],
        "text": "Body Weight"
      },
      "subject": {
        "reference": "Patient/21e0d5b45804d2f5674bb1e505832d4facd6199e84a95c681fc99aaee46d33e9"
      },
      "encounter": {
        "reference": "Encounter/3795d720b91ec62c7e68716234034042ecb39df09e6f80bb13e2e4dd320ee705"
      },
      "_effectiveDateTime": {
        "extension": [ {
          "url": "http://hl7.org/fhir/StructureDefinition/data-absent-reason",
          "valueCode": "unknown"
        } ]
      },
      "valueQuantity": {
        "value": 107,
        "unit": "kilogram",
        "system": "http://unitsofmeasure.org",
        "code": "kg"
      }
    },
    "request": {
      "method": "POST",
      "url": "Observation",
      "ifNoneExist": "identifier=https://mein.krankenhaus.de/fhir/NamingSystem/observationId|b9587baa9ca680f6ba88b0dc777400fbc48ab5ab40b3ab4c7f24ea61e23b1dfd"
    }
  }, {
    "fullUrl": "Observation/ae9c26077deade8cf5ecad6292ce91c7d70fc9a882a7523e87421ac6c01ffd8f",
    "resource": {
      "resourceType": "Observation",
      "meta": {
        "profile": [ "https://www.netzwerk-universitaetsmedizin.de/fhir/StructureDefinition/body-height" ]
      },
      "identifier": [ {
        "type": {
          "coding": [ {
            "system": "http://terminology.hl7.org/CodeSystem/v2-0203",
            "code": "OBI",
            "display": "Observation Instance Identifier"
          } ]
        },
        "system": "https://mein.krankenhaus.de/fhir/NamingSystem/observationId",
        "value": "3ae4e2213cfcfe153d16116db23fc81ca2478fe029dfb424c4ac1b6964a5b943",
        "assigner": {
          "reference": "Organization/3a4f3433bce81181bad2d8e0b8fafccf7dc800bc06f29be73dcb38b750a48f9a"
        }
      } ],
      "status": "final",
      "category": [ {
        "coding": [ {
          "system": "http://terminology.hl7.org/CodeSystem/observation-category",
          "code": "vital-signs",
          "display": "Vital Signs"
        } ]
      } ],
      "code": {
        "coding": [ {
          "system": "http://loinc.org",
          "code": "8302-2"
        }, {
          "system": "http://snomed.info/sct",
          "code": "50373000"
        } ],
        "text": "Body height"
      },
      "subject": {
        "reference": "Patient/21e0d5b45804d2f5674bb1e505832d4facd6199e84a95c681fc99aaee46d33e9"
      },
      "encounter": {
        "reference": "Encounter/3795d720b91ec62c7e68716234034042ecb39df09e6f80bb13e2e4dd320ee705"
      },
      "_effectiveDateTime": {
        "extension": [ {
          "url": "http://hl7.org/fhir/StructureDefinition/data-absent-reason",
          "valueCode": "unknown"
        } ]
      },
      "valueQuantity": {
        "value": 17,
        "unit": "centimeter",
        "system": "http://unitsofmeasure.org",
        "code": "cm"
      }
    },
    "request": {
      "method": "POST",
      "url": "Observation",
      "ifNoneExist": "identifier=https://mein.krankenhaus.de/fhir/NamingSystem/observationId|ae9c26077deade8cf5ecad6292ce91c7d70fc9a882a7523e87421ac6c01ffd8f"
    }
  }, {
    "fullUrl": "Observation/18cdbab72a028944489d097d6a7508f9edec63177cb3aeb1f84363d23f31b836",
    "resource": {
      "resourceType": "Observation",
      "meta": {
        "profile": [ "https://www.netzwerk-universitaetsmedizin.de/fhir/StructureDefinition/known-exposure" ]
      },
      "identifier": [ {
        "type": {
          "coding": [ {
            "system": "http://terminology.hl7.org/CodeSystem/v2-0203",
            "code": "OBI",
            "display": "Observation Instance Identifier"
          } ]
        },
        "system": "https://mein.krankenhaus.de/fhir/NamingSystem/observationId",
        "value": "54b141e144f2a65b0ec85188664475949331d2411038d447efb761773c4b88d1",
        "assigner": {
          "reference": "Organization/3a4f3433bce81181bad2d8e0b8fafccf7dc800bc06f29be73dcb38b750a48f9a"
        }
      } ],
      "status": "final",
      "category": [ {
        "coding": [ {
          "system": "http://terminology.hl7.org/CodeSystem/observation-category",
          "code": "social-history",
          "display": "Social History"
        } ]
      } ],
      "code": {
        "coding": [ {
          "system": "http://loinc.org",
          "code": "88636-6"
        } ],
        "text": "Known exposure"
      },
      "subject": {
        "reference": "Patient/21e0d5b45804d2f5674bb1e505832d4facd6199e84a95c681fc99aaee46d33e9"
      },
      "encounter": {
        "reference": "Encounter/3795d720b91ec62c7e68716234034042ecb39df09e6f80bb13e2e4dd320ee705"
      },
      "_effectiveDateTime": {
        "extension": [ {
          "url": "http://hl7.org/fhir/StructureDefinition/data-absent-reason",
          "valueCode": "unknown"
        } ]
      },
      "valueCodeableConcept": {
        "coding": [ {
          "system": "http://snomed.info/sct",
          "code": "373067005"
        } ]
      }
    },
    "request": {
      "method": "POST",
      "url": "Observation",
      "ifNoneExist": "identifier=https://mein.krankenhaus.de/fhir/NamingSystem/observationId|18cdbab72a028944489d097d6a7508f9edec63177cb3aeb1f84363d23f31b836"
    }
  }, {
    "fullUrl": "Condition/77ea529fc7055bd3f55d49c8942d31ccfbd5c69c7b928ae2989d640a20bea87f",
    "resource": {
      "resourceType": "Condition",
      "meta": {
        "profile": [ "https://www.netzwerk-universitaetsmedizin.de/fhir/StructureDefinition/symptoms-covid-19" ]
      },
      "identifier": [ {
        "system": "https://mein.krankenhaus.de/fhir/NamingSystem/conditionId",
        "value": "e0b9dd073116df4752d256afefd74274a3d5d2c8d5cc4e840a6dbdb63c2ef166"
      } ],
      "clinicalStatus": {
        "coding": [ {
          "system": "http://terminology.hl7.org/CodeSystem/condition-clinical",
          "code": "active",
          "display": "Active"
        } ]
      },
      "verificationStatus": {
        "coding": [ {
          "system": "http://terminology.hl7.org/CodeSystem/condition-ver-status",
          "code": "confirmed",
          "display": "Confirmed"
        }, {
          "system": "http://snomed.info/sct",
          "code": "410605003",
          "display": "Confirmed present (qualifier value)"
        } ]
      },
      "category": [ {
        "coding": [ {
          "system": "http://loinc.org",
          "code": "75325-1"
        } ]
      } ],
      "severity": {
        "coding": [ {
          "system": "http://snomed.info/sct",
          "code": "6736007"
        } ]
      },
      "code": {
        "coding": [ {
          "system": "http://snomed.info/sct",
          "code": "21522001"
        } ]
      },
      "subject": {
        "reference": "Patient/21e0d5b45804d2f5674bb1e505832d4facd6199e84a95c681fc99aaee46d33e9"
      },
      "encounter": {
        "reference": "Encounter/3795d720b91ec62c7e68716234034042ecb39df09e6f80bb13e2e4dd320ee705"
      },
      "_recordedDate": {
        "extension": [ {
          "url": "http://hl7.org/fhir/StructureDefinition/data-absent-reason",
          "valueCode": "unknown"
        } ]
      }
    },
    "request": {
      "method": "POST",
      "url": "Condition",
      "ifNoneExist": "identifier=https://mein.krankenhaus.de/fhir/NamingSystem/conditionId|77ea529fc7055bd3f55d49c8942d31ccfbd5c69c7b928ae2989d640a20bea87f"
    }
  }, {
    "fullUrl": "Condition/27d7e4dadfde642bbab5a6c0df5b0ad2064727e386d3780f4f68a47540f01ea5",
    "resource": {
      "resourceType": "Condition",
      "meta": {
        "profile": [ "https://www.netzwerk-universitaetsmedizin.de/fhir/StructureDefinition/symptoms-covid-19" ]
      },
      "identifier": [ {
        "system": "https://mein.krankenhaus.de/fhir/NamingSystem/conditionId",
        "value": "53da712867d73449d0ec76a9cd850904c2c2a2d5872e63b845c79032b569483b"
      } ],
      "clinicalStatus": {
        "coding": [ {
          "system": "http://terminology.hl7.org/CodeSystem/condition-clinical",
          "code": "active",
          "display": "Active"
        } ]
      },
      "verificationStatus": {
        "coding": [ {
          "system": "http://terminology.hl7.org/CodeSystem/condition-ver-status",
          "code": "refuted",
          "display": "Refuted"
        }, {
          "system": "http://snomed.info/sct",
          "code": "410594000",
          "display": "Definitely NOT present (qualifier value)"
        } ]
      },
      "category": [ {
        "coding": [ {
          "system": "http://loinc.org",
          "code": "75325-1"
        } ]
      } ],
      "code": {
        "coding": [ {
          "system": "http://snomed.info/sct",
          "code": "40917007"
        } ]
      },
      "subject": {
        "reference": "Patient/21e0d5b45804d2f5674bb1e505832d4facd6199e84a95c681fc99aaee46d33e9"
      },
      "encounter": {
        "reference": "Encounter/3795d720b91ec62c7e68716234034042ecb39df09e6f80bb13e2e4dd320ee705"
      },
      "_recordedDate": {
        "extension": [ {
          "url": "http://hl7.org/fhir/StructureDefinition/data-absent-reason",
          "valueCode": "unknown"
        } ]
      }
    },
    "request": {
      "method": "POST",
      "url": "Condition",
      "ifNoneExist": "identifier=https://mein.krankenhaus.de/fhir/NamingSystem/conditionId|27d7e4dadfde642bbab5a6c0df5b0ad2064727e386d3780f4f68a47540f01ea5"
    }
  }, {
    "fullUrl": "Condition/1c7949017a72148eba37124acced97ea50aa7f04966d672112365850bf839cf0",
    "resource": {
      "resourceType": "Condition",
      "meta": {
        "profile": [ "https://www.netzwerk-universitaetsmedizin.de/fhir/StructureDefinition/symptoms-covid-19" ]
      },
      "identifier": [ {
        "system": "https://mein.krankenhaus.de/fhir/NamingSystem/conditionId",
        "value": "ef286aa6df4aebb89a58554a58f744dd09bb05979ef28f7841c44bcf2f27ceb9"
      } ],
      "clinicalStatus": {
        "coding": [ {
          "system": "http://terminology.hl7.org/CodeSystem/condition-clinical",
          "code": "active",
          "display": "Active"
        } ]
      },
      "verificationStatus": {
        "coding": [ {
          "system": "http://terminology.hl7.org/CodeSystem/condition-ver-status",
          "code": "refuted",
          "display": "Refuted"
        }, {
          "system": "http://snomed.info/sct",
          "code": "410594000",
          "display": "Definitely NOT present (qualifier value)"
        } ]
      },
      "category": [ {
        "coding": [ {
          "system": "http://loinc.org",
          "code": "75325-1"
        } ]
      } ],
      "code": {
        "coding": [ {
          "system": "http://snomed.info/sct",
          "code": "62315008"
        } ]
      },
      "subject": {
        "reference": "Patient/21e0d5b45804d2f5674bb1e505832d4facd6199e84a95c681fc99aaee46d33e9"
      },
      "encounter": {
        "reference": "Encounter/3795d720b91ec62c7e68716234034042ecb39df09e6f80bb13e2e4dd320ee705"
      },
      "_recordedDate": {
        "extension": [ {
          "url": "http://hl7.org/fhir/StructureDefinition/data-absent-reason",
          "valueCode": "unknown"
        } ]
      }
    },
    "request": {
      "method": "POST",
      "url": "Condition",
      "ifNoneExist": "identifier=https://mein.krankenhaus.de/fhir/NamingSystem/conditionId|1c7949017a72148eba37124acced97ea50aa7f04966d672112365850bf839cf0"
    }
  }, {
    "fullUrl": "Condition/39688f3ea63d1dfacab04aa5a01c80e5620854b8ce016579c3965c480084bd47",
    "resource": {
      "resourceType": "Condition",
      "meta": {
        "profile": [ "https://www.netzwerk-universitaetsmedizin.de/fhir/StructureDefinition/symptoms-covid-19" ]
      },
      "identifier": [ {
        "system": "https://mein.krankenhaus.de/fhir/NamingSystem/conditionId",
        "value": "05e00668e91cab005804efc6a9cdfa09391da7f3c30f68ae1e7569735819763d"
      } ],
      "clinicalStatus": {
        "coding": [ {
          "system": "http://terminology.hl7.org/CodeSystem/condition-clinical",
          "code": "active",
          "display": "Active"
        } ]
      },
      "verificationStatus": {
        "coding": [ {
          "system": "http://terminology.hl7.org/CodeSystem/condition-ver-status",
          "code": "refuted",
          "display": "Refuted"
        }, {
          "system": "http://snomed.info/sct",
          "code": "410594000",
          "display": "Definitely NOT present (qualifier value)"
        } ]
      },
      "category": [ {
        "coding": [ {
          "system": "http://loinc.org",
          "code": "75325-1"
        } ]
      } ],
      "code": {
        "coding": [ {
          "system": "http://snomed.info/sct",
          "code": "422400008"
        } ]
      },
      "subject": {
        "reference": "Patient/21e0d5b45804d2f5674bb1e505832d4facd6199e84a95c681fc99aaee46d33e9"
      },
      "encounter": {
        "reference": "Encounter/3795d720b91ec62c7e68716234034042ecb39df09e6f80bb13e2e4dd320ee705"
      },
      "_recordedDate": {
        "extension": [ {
          "url": "http://hl7.org/fhir/StructureDefinition/data-absent-reason",
          "valueCode": "unknown"
        } ]
      }
    },
    "request": {
      "method": "POST",
      "url": "Condition",
      "ifNoneExist": "identifier=https://mein.krankenhaus.de/fhir/NamingSystem/conditionId|39688f3ea63d1dfacab04aa5a01c80e5620854b8ce016579c3965c480084bd47"
    }
  }, {
    "fullUrl": "Condition/b263c41e4f79c6faa781752e6664bcc57b2167219e0870fe6734d93f66026dcd",
    "resource": {
      "resourceType": "Condition",
      "meta": {
        "profile": [ "https://www.netzwerk-universitaetsmedizin.de/fhir/StructureDefinition/symptoms-covid-19" ]
      },
      "modifierExtension": [ {
        "url": "https://www.netzwerk-universitaetsmedizin.de/fhir/StructureDefinition/uncertainty-of-presence",
        "valueCodeableConcept": {
          "coding": [ {
            "system": "http://snomed.info/sct",
            "code": "261665006",
            "display": "Unknown (qualifier value)"
          } ],
          "text": "Presence unknown."
        }
      } ],
      "identifier": [ {
        "system": "https://mein.krankenhaus.de/fhir/NamingSystem/conditionId",
        "value": "09e0a396a50aca6219d93987e372479b81698581e07ec4354c670c9bb2d0f64e"
      } ],
      "clinicalStatus": {
        "coding": [ {
          "system": "http://terminology.hl7.org/CodeSystem/condition-clinical",
          "code": "active",
          "display": "Active"
        } ]
      },
      "category": [ {
        "coding": [ {
          "system": "http://loinc.org",
          "code": "75325-1"
        } ]
      } ],
      "code": {
        "coding": [ {
          "system": "http://snomed.info/sct",
          "code": "49727002"
        } ]
      },
      "subject": {
        "reference": "Patient/21e0d5b45804d2f5674bb1e505832d4facd6199e84a95c681fc99aaee46d33e9"
      },
      "encounter": {
        "reference": "Encounter/3795d720b91ec62c7e68716234034042ecb39df09e6f80bb13e2e4dd320ee705"
      },
      "_recordedDate": {
        "extension": [ {
          "url": "http://hl7.org/fhir/StructureDefinition/data-absent-reason",
          "valueCode": "unknown"
        } ]
      }
    },
    "request": {
      "method": "POST",
      "url": "Condition",
      "ifNoneExist": "identifier=https://mein.krankenhaus.de/fhir/NamingSystem/conditionId|b263c41e4f79c6faa781752e6664bcc57b2167219e0870fe6734d93f66026dcd"
    }
  }, {
    "fullUrl": "Condition/af3c5f377efb24a60e40329e2a53a95a4109e23fa20bdbebe8efb894b6d4eacd",
    "resource": {
      "resourceType": "Condition",
      "meta": {
        "profile": [ "https://www.netzwerk-universitaetsmedizin.de/fhir/StructureDefinition/symptoms-covid-19" ]
      },
      "identifier": [ {
        "system": "https://mein.krankenhaus.de/fhir/NamingSystem/conditionId",
        "value": "c4f8c36cc5808982754a522646106af90a97dc117e104e60c1c0e0a3d86ec9cf"
      } ],
      "clinicalStatus": {
        "coding": [ {
          "system": "http://terminology.hl7.org/CodeSystem/condition-clinical",
          "code": "active",
          "display": "Active"
        } ]
      },
      "verificationStatus": {
        "coding": [ {
          "system": "http://terminology.hl7.org/CodeSystem/condition-ver-status",
          "code": "refuted",
          "display": "Refuted"
        }, {
          "system": "http://snomed.info/sct",
          "code": "410594000",
          "display": "Definitely NOT present (qualifier value)"
        } ]
      },
      "category": [ {
        "coding": [ {
          "system": "http://loinc.org",
          "code": "75325-1"
        } ]
      } ],
      "code": {
        "coding": [ {
          "system": "http://snomed.info/sct",
          "code": "267036007"
        } ]
      },
      "subject": {
        "reference": "Patient/21e0d5b45804d2f5674bb1e505832d4facd6199e84a95c681fc99aaee46d33e9"
      },
      "encounter": {
        "reference": "Encounter/3795d720b91ec62c7e68716234034042ecb39df09e6f80bb13e2e4dd320ee705"
      },
      "_recordedDate": {
        "extension": [ {
          "url": "http://hl7.org/fhir/StructureDefinition/data-absent-reason",
          "valueCode": "unknown"
        } ]
      }
    },
    "request": {
      "method": "POST",
      "url": "Condition",
      "ifNoneExist": "identifier=https://mein.krankenhaus.de/fhir/NamingSystem/conditionId|af3c5f377efb24a60e40329e2a53a95a4109e23fa20bdbebe8efb894b6d4eacd"
    }
  }, {
    "fullUrl": "Condition/091302e4edf70ce0abc23b7099d3c92d2df6e2e3cf40ed7d0f075f92298dc8bb",
    "resource": {
      "resourceType": "Condition",
      "meta": {
        "profile": [ "https://www.netzwerk-universitaetsmedizin.de/fhir/StructureDefinition/symptoms-covid-19" ]
      },
      "modifierExtension": [ {
        "url": "https://www.netzwerk-universitaetsmedizin.de/fhir/StructureDefinition/uncertainty-of-presence",
        "valueCodeableConcept": {
          "coding": [ {
            "system": "http://snomed.info/sct",
            "code": "261665006",
            "display": "Unknown (qualifier value)"
          } ],
          "text": "Presence unknown."
        }
      } ],
      "identifier": [ {
        "system": "https://mein.krankenhaus.de/fhir/NamingSystem/conditionId",
        "value": "6aba678e00452b2ebda47b8963c2e699ae4439231fb30b5699c5b6140855cf3d"
      } ],
      "clinicalStatus": {
        "coding": [ {
          "system": "http://terminology.hl7.org/CodeSystem/condition-clinical",
          "code": "active",
          "display": "Active"
        } ]
      },
      "category": [ {
        "coding": [ {
          "system": "http://loinc.org",
          "code": "75325-1"
        } ]
      } ],
      "code": {
        "coding": [ {
          "system": "http://snomed.info/sct",
          "code": "422587007"
        } ]
      },
      "subject": {
        "reference": "Patient/21e0d5b45804d2f5674bb1e505832d4facd6199e84a95c681fc99aaee46d33e9"
      },
      "encounter": {
        "reference": "Encounter/3795d720b91ec62c7e68716234034042ecb39df09e6f80bb13e2e4dd320ee705"
      },
      "_recordedDate": {
        "extension": [ {
          "url": "http://hl7.org/fhir/StructureDefinition/data-absent-reason",
          "valueCode": "unknown"
        } ]
      }
    },
    "request": {
      "method": "POST",
      "url": "Condition",
      "ifNoneExist": "identifier=https://mein.krankenhaus.de/fhir/NamingSystem/conditionId|091302e4edf70ce0abc23b7099d3c92d2df6e2e3cf40ed7d0f075f92298dc8bb"
    }
  }, {
    "fullUrl": "Condition/63dbb7e5bf6945bdb0113702c90be1ad6dd7e22b299a183d50d4619f4f226238",
    "resource": {
      "resourceType": "Condition",
      "meta": {
        "profile": [ "https://www.netzwerk-universitaetsmedizin.de/fhir/StructureDefinition/symptoms-covid-19" ]
      },
      "identifier": [ {
        "system": "https://mein.krankenhaus.de/fhir/NamingSystem/conditionId",
        "value": "0cdb219891d769e325a6f55d0f18866c4a821a4f0edfa6d512f418c998d2f3d1"
      } ],
      "clinicalStatus": {
        "coding": [ {
          "system": "http://terminology.hl7.org/CodeSystem/condition-clinical",
          "code": "active",
          "display": "Active"
        } ]
      },
      "verificationStatus": {
        "coding": [ {
          "system": "http://terminology.hl7.org/CodeSystem/condition-ver-status",
          "code": "confirmed",
          "display": "Confirmed"
        }, {
          "system": "http://snomed.info/sct",
          "code": "410605003",
          "display": "Confirmed present (qualifier value)"
        } ]
      },
      "category": [ {
        "coding": [ {
          "system": "http://loinc.org",
          "code": "75325-1"
        } ]
      } ],
      "severity": {
        "coding": [ {
          "system": "http://snomed.info/sct",
          "code": "6736007"
        } ]
      },
      "code": {
        "coding": [ {
          "system": "http://snomed.info/sct",
          "code": "426000000"
        } ]
      },
      "subject": {
        "reference": "Patient/21e0d5b45804d2f5674bb1e505832d4facd6199e84a95c681fc99aaee46d33e9"
      },
      "encounter": {
        "reference": "Encounter/3795d720b91ec62c7e68716234034042ecb39df09e6f80bb13e2e4dd320ee705"
      },
      "_recordedDate": {
        "extension": [ {
          "url": "http://hl7.org/fhir/StructureDefinition/data-absent-reason",
          "valueCode": "unknown"
        } ]
      }
    },
    "request": {
      "method": "POST",
      "url": "Condition",
      "ifNoneExist": "identifier=https://mein.krankenhaus.de/fhir/NamingSystem/conditionId|63dbb7e5bf6945bdb0113702c90be1ad6dd7e22b299a183d50d4619f4f226238"
    }
  }, {
    "fullUrl": "Condition/ebefa7d963381c04c58492838622dcaf7b1fbaf991ad0df2994810db16c416b6",
    "resource": {
      "resourceType": "Condition",
      "meta": {
        "profile": [ "https://www.netzwerk-universitaetsmedizin.de/fhir/StructureDefinition/symptoms-covid-19" ]
      },
      "identifier": [ {
        "system": "https://mein.krankenhaus.de/fhir/NamingSystem/conditionId",
        "value": "5e58e6b2203291d2d9d22e347997730e9334b8c5c17c45a82aa4a9042c46bccb"
      } ],
      "clinicalStatus": {
        "coding": [ {
          "system": "http://terminology.hl7.org/CodeSystem/condition-clinical",
          "code": "active",
          "display": "Active"
        } ]
      },
      "verificationStatus": {
        "coding": [ {
          "system": "http://terminology.hl7.org/CodeSystem/condition-ver-status",
          "code": "refuted",
          "display": "Refuted"
        }, {
          "system": "http://snomed.info/sct",
          "code": "410594000",
          "display": "Definitely NOT present (qualifier value)"
        } ]
      },
      "category": [ {
        "coding": [ {
          "system": "http://loinc.org",
          "code": "75325-1"
        } ]
      } ],
      "code": {
        "coding": [ {
          "system": "http://snomed.info/sct",
          "code": "25064002"
        } ]
      },
      "subject": {
        "reference": "Patient/21e0d5b45804d2f5674bb1e505832d4facd6199e84a95c681fc99aaee46d33e9"
      },
      "encounter": {
        "reference": "Encounter/3795d720b91ec62c7e68716234034042ecb39df09e6f80bb13e2e4dd320ee705"
      },
      "_recordedDate": {
        "extension": [ {
          "url": "http://hl7.org/fhir/StructureDefinition/data-absent-reason",
          "valueCode": "unknown"
        } ]
      }
    },
    "request": {
      "method": "POST",
      "url": "Condition",
      "ifNoneExist": "identifier=https://mein.krankenhaus.de/fhir/NamingSystem/conditionId|ebefa7d963381c04c58492838622dcaf7b1fbaf991ad0df2994810db16c416b6"
    }
  }, {
    "fullUrl": "Condition/6a1f2ef2327abc176f3527e816b52373b06b3db5a350f404c9e98bc1380e551d",
    "resource": {
      "resourceType": "Condition",
      "meta": {
        "profile": [ "https://www.netzwerk-universitaetsmedizin.de/fhir/StructureDefinition/symptoms-covid-19" ]
      },
      "identifier": [ {
        "system": "https://mein.krankenhaus.de/fhir/NamingSystem/conditionId",
        "value": "13b099d4a9827119b9f7047e0dd614eec1ee73aaa0d1c51bf82777f553c68b68"
      } ],
      "clinicalStatus": {
        "coding": [ {
          "system": "http://terminology.hl7.org/CodeSystem/condition-clinical",
          "code": "active",
          "display": "Active"
        } ]
      },
      "verificationStatus": {
        "coding": [ {
          "system": "http://terminology.hl7.org/CodeSystem/condition-ver-status",
          "code": "confirmed",
          "display": "Confirmed"
        }, {
          "system": "http://snomed.info/sct",
          "code": "410605003",
          "display": "Confirmed present (qualifier value)"
        } ]
      },
      "category": [ {
        "coding": [ {
          "system": "http://loinc.org",
          "code": "75325-1"
        } ]
      } ],
      "severity": {
        "coding": [ {
          "system": "http://snomed.info/sct",
          "code": "24484000"
        } ]
      },
      "code": {
        "coding": [ {
          "system": "http://snomed.info/sct",
          "code": "385432009",
          "display": "Not applicable (qualifier value)"
        } ],
        "text": "<Freitext>"
      },
      "subject": {
        "reference": "Patient/21e0d5b45804d2f5674bb1e505832d4facd6199e84a95c681fc99aaee46d33e9"
      },
      "encounter": {
        "reference": "Encounter/3795d720b91ec62c7e68716234034042ecb39df09e6f80bb13e2e4dd320ee705"
      },
      "_recordedDate": {
        "extension": [ {
          "url": "http://hl7.org/fhir/StructureDefinition/data-absent-reason",
          "valueCode": "unknown"
        } ]
      }
    },
    "request": {
      "method": "POST",
      "url": "Condition",
      "ifNoneExist": "identifier=https://mein.krankenhaus.de/fhir/NamingSystem/conditionId|6a1f2ef2327abc176f3527e816b52373b06b3db5a350f404c9e98bc1380e551d"
    }
  }, {
    "fullUrl": "Procedure/a338b42e08c38f642a1f2f456a64a5dc2ea663fb253ef0fc549e917d0671a2f7",
    "resource": {
      "resourceType": "Procedure",
      "meta": {
        "profile": [ "https://www.netzwerk-universitaetsmedizin.de/fhir/StructureDefinition/dialysis" ]
      },
      "identifier": [ {
        "system": "https://mein.krankenhaus.de/fhir/NamingSystem/procedureId",
        "value": "621eaf22e26d9671f1ae4e261675f6be1f9c4edef8398196af5bdb45dd3ca10c"
      } ],
      "status": "in-progress",
      "category": {
        "coding": [ {
          "system": "http://snomed.info/sct",
          "code": "277132007",
          "display": "Therapeutic procedure (procedure)"
        } ]
      },
      "code": {
        "coding": [ {
          "system": "http://snomed.info/sct",
          "code": "108241001"
        } ],
        "text": "Dialysis"
      },
      "subject": {
        "reference": "Patient/21e0d5b45804d2f5674bb1e505832d4facd6199e84a95c681fc99aaee46d33e9"
      },
      "encounter": {
        "reference": "Encounter/3795d720b91ec62c7e68716234034042ecb39df09e6f80bb13e2e4dd320ee705"
      },
      "_performedDateTime": {
        "extension": [ {
          "url": "http://hl7.org/fhir/StructureDefinition/data-absent-reason",
          "valueCode": "unknown"
        } ]
      }
    },
    "request": {
      "method": "POST",
      "url": "Procedure",
      "ifNoneExist": "identifier=https://mein.krankenhaus.de/fhir/NamingSystem/procedureId|a338b42e08c38f642a1f2f456a64a5dc2ea663fb253ef0fc549e917d0671a2f7"
    }
  }, {
    "fullUrl": "Procedure/60158c870f4a2e181e30b7f969aeca41823b694d186e47d1994539a09ce6c447",
    "resource": {
      "resourceType": "Procedure",
      "meta": {
        "profile": [ "https://www.netzwerk-universitaetsmedizin.de/fhir/StructureDefinition/prone-position" ]
      },
      "identifier": [ {
        "system": "https://mein.krankenhaus.de/fhir/NamingSystem/procedureId",
        "value": "50de2819eabc70d034424d4d4713bfb655391548686b1ca43bb942079d6e341c"
      } ],
      "status": "unknown",
      "category": {
        "coding": [ {
          "system": "http://snomed.info/sct",
          "code": "225287004",
          "display": "Procedures relating to positioning and support (procedure)"
        } ]
      },
      "code": {
        "coding": [ {
          "system": "http://snomed.info/sct",
          "code": "431182000"
        } ],
        "text": "Prone position"
      },
      "subject": {
        "reference": "Patient/21e0d5b45804d2f5674bb1e505832d4facd6199e84a95c681fc99aaee46d33e9"
      },
      "encounter": {
        "reference": "Encounter/3795d720b91ec62c7e68716234034042ecb39df09e6f80bb13e2e4dd320ee705"
      },
      "_performedDateTime": {
        "extension": [ {
          "url": "http://hl7.org/fhir/StructureDefinition/data-absent-reason",
          "valueCode": "unknown"
        } ]
      }
    },
    "request": {
      "method": "POST",
      "url": "Procedure",
      "ifNoneExist": "identifier=https://mein.krankenhaus.de/fhir/NamingSystem/procedureId|60158c870f4a2e181e30b7f969aeca41823b694d186e47d1994539a09ce6c447"
    }
  }, {
    "fullUrl": "Procedure/4d999e36564b06f45e9b5437eec5d4ecad1475d2a412b65b939765e26871c3f3",
    "resource": {
      "resourceType": "Procedure",
      "meta": {
        "profile": [ "https://www.netzwerk-universitaetsmedizin.de/fhir/StructureDefinition/respiratory-therapies" ]
      },
      "identifier": [ {
        "system": "https://mein.krankenhaus.de/fhir/NamingSystem/procedureId",
        "value": "3fe9ca0a416fa5a7de8d38ae96ca1e243d6c3579772a99a184f05fdb3e22509e"
      } ],
      "status": "in-progress",
      "category": {
        "coding": [ {
          "system": "http://snomed.info/sct",
          "code": "277132007",
          "display": "Therapeutic procedure (procedure)"
        } ]
      },
      "code": {
        "coding": [ {
          "system": "http://snomed.info/sct",
          "code": "428311008"
        } ]
      },
      "subject": {
        "reference": "Patient/21e0d5b45804d2f5674bb1e505832d4facd6199e84a95c681fc99aaee46d33e9"
      },
      "encounter": {
        "reference": "Encounter/3795d720b91ec62c7e68716234034042ecb39df09e6f80bb13e2e4dd320ee705"
      },
      "_performedDateTime": {
        "extension": [ {
          "url": "http://hl7.org/fhir/StructureDefinition/data-absent-reason",
          "valueCode": "unknown"
        } ]
      }
    },
    "request": {
      "method": "POST",
      "url": "Procedure",
      "ifNoneExist": "identifier=https://mein.krankenhaus.de/fhir/NamingSystem/procedureId|4d999e36564b06f45e9b5437eec5d4ecad1475d2a412b65b939765e26871c3f3"
    }
  }, {
    "fullUrl": "Observation/bb72f769e7d1516d45c90a354011c0454ee1d96856ac6753052e500439dc867b",
    "resource": {
      "resourceType": "Observation",
      "meta": {
        "profile": [ "https://www.netzwerk-universitaetsmedizin.de/fhir/StructureDefinition/patient-in-icu" ]
      },
      "identifier": [ {
        "system": "https://mein.krankenhaus.de/fhir/NamingSystem/observationId",
        "value": "4dabde77f83cd460f6c9541271761ee079980b974d0e036ec4f996f532201b55"
      } ],
      "status": "final",
      "category": [ {
        "coding": [ {
          "system": "http://terminology.hl7.org/CodeSystem/observation-category",
          "code": "survey",
          "display": "Survey"
        } ]
      } ],
      "code": {
        "coding": [ {
          "system": "https://www.netzwerk-universitaetsmedizin.de/fhir/CodeSystem/ecrf-parameter-codes",
          "code": "01",
          "display": "Is the patient in the intensive care unit?"
        } ]
      },
      "subject": {
        "reference": "Patient/21e0d5b45804d2f5674bb1e505832d4facd6199e84a95c681fc99aaee46d33e9"
      },
      "encounter": {
        "reference": "Encounter/3795d720b91ec62c7e68716234034042ecb39df09e6f80bb13e2e4dd320ee705"
      },
      "_effectiveDateTime": {
        "extension": [ {
          "url": "http://hl7.org/fhir/StructureDefinition/data-absent-reason",
          "valueCode": "unknown"
        } ]
      },
      "valueCodeableConcept": {
        "coding": [ {
          "system": "http://snomed.info/sct",
          "code": "373067005"
        } ]
      }
    },
    "request": {
      "method": "POST",
      "url": "Observation",
      "ifNoneExist": "identifier=https://mein.krankenhaus.de/fhir/NamingSystem/observationId|bb72f769e7d1516d45c90a354011c0454ee1d96856ac6753052e500439dc867b"
    }
  }, {
    "fullUrl": "Condition/a32cacc32c81dfcc5fbdd0bac37ae85c86f750326e8ef53ea426e47d63f0728b",
    "resource": {
      "resourceType": "Condition",
      "meta": {
        "profile": [ "https://www.netzwerk-universitaetsmedizin.de/fhir/StructureDefinition/dependence-on-ventilator" ]
      },
      "identifier": [ {
        "system": "https://mein.krankenhaus.de/fhir/NamingSystem/conditionId",
        "value": "878405b049e56523b685251c3d7288339df38518146ed8820e414da88e10c314"
      } ],
      "clinicalStatus": {
        "coding": [ {
          "system": "http://terminology.hl7.org/CodeSystem/condition-clinical",
          "code": "active",
          "display": "Active"
        } ]
      },
      "verificationStatus": {
        "coding": [ {
          "system": "http://terminology.hl7.org/CodeSystem/condition-ver-status",
          "code": "refuted",
          "display": "Refuted"
        }, {
          "system": "http://snomed.info/sct",
          "code": "410594000",
          "display": "Definitely NOT present (qualifier value)"
        } ]
      },
      "category": [ {
        "coding": [ {
          "system": "http://snomed.info/sct",
          "code": "404989005",
          "display": "Ventilation status (observable entity)"
        } ]
      } ],
      "code": {
        "coding": [ {
          "system": "http://snomed.info/sct",
          "code": "444932008"
        } ]
      },
      "subject": {
        "reference": "Patient/21e0d5b45804d2f5674bb1e505832d4facd6199e84a95c681fc99aaee46d33e9"
      },
      "encounter": {
        "reference": "Encounter/3795d720b91ec62c7e68716234034042ecb39df09e6f80bb13e2e4dd320ee705"
      },
      "_recordedDate": {
        "extension": [ {
          "url": "http://hl7.org/fhir/StructureDefinition/data-absent-reason",
          "valueCode": "unknown"
        } ]
      }
    },
    "request": {
      "method": "POST",
      "url": "Condition",
      "ifNoneExist": "identifier=https://mein.krankenhaus.de/fhir/NamingSystem/conditionId|a32cacc32c81dfcc5fbdd0bac37ae85c86f750326e8ef53ea426e47d63f0728b"
    }
  }, {
    "fullUrl": "Observation/764a8cfbbaeea1e5bae9481e60d44f010336f909344451eeac73f3b866e9e2fa",
    "resource": {
      "resourceType": "Observation",
      "meta": {
        "profile": [ "https://www.netzwerk-universitaetsmedizin.de/fhir/StructureDefinition/discharge-disposition" ]
      },
      "identifier": [ {
        "type": {
          "coding": [ {
            "system": "http://terminology.hl7.org/CodeSystem/v2-0203",
            "code": "OBI",
            "display": "Observation Instance Identifier"
          } ]
        },
        "system": "https://mein.krankenhaus.de/fhir/NamingSystem/observationId",
        "value": "379064c97232134cf4aee8d3d620ebb7d44b1b0a3aa473a9bebe9a2ed0696eb8",
        "assigner": {
          "reference": "Organization/3a4f3433bce81181bad2d8e0b8fafccf7dc800bc06f29be73dcb38b750a48f9a"
        }
      } ],
      "status": "final",
      "category": [ {
        "coding": [ {
          "system": "http://terminology.hl7.org/CodeSystem/observation-category",
          "code": "social-history",
          "display": "Social History"
        } ]
      } ],
      "code": {
        "coding": [ {
          "system": "http://loinc.org",
          "code": "55128-3"
        } ],
        "text": "type of Discharge"
      },
      "subject": {
        "reference": "Patient/21e0d5b45804d2f5674bb1e505832d4facd6199e84a95c681fc99aaee46d33e9"
      },
      "encounter": {
        "reference": "Encounter/3795d720b91ec62c7e68716234034042ecb39df09e6f80bb13e2e4dd320ee705"
      },
      "_effectiveDateTime": {
        "extension": [ {
          "url": "http://hl7.org/fhir/StructureDefinition/data-absent-reason",
          "valueCode": "unknown"
        } ]
      },
      "valueCodeableConcept": {
        "coding": [ {
          "system": "http://snomed.info/sct",
          "code": "306237005"
        } ]
      }
    },
    "request": {
      "method": "POST",
      "url": "Observation",
      "ifNoneExist": "identifier=https://mein.krankenhaus.de/fhir/NamingSystem/observationId|764a8cfbbaeea1e5bae9481e60d44f010336f909344451eeac73f3b866e9e2fa"
    }
  }, {
    "fullUrl": "Observation/0b0f3ab0b8d415c8c5b2624562e0853287d21f57b0aae3eb61d28d6c63df7c61",
    "resource": {
      "resourceType": "Observation",
      "meta": {
        "profile": [ "https://www.netzwerk-universitaetsmedizin.de/fhir/StructureDefinition/sars-cov-2-rt-pcr" ]
      },
      "identifier": [ {
        "type": {
          "coding": [ {
            "system": "http://terminology.hl7.org/CodeSystem/v2-0203",
            "code": "OBI",
            "display": "Observation Instance Identifier"
          } ]
        },
        "system": "https://mein.krankenhaus.de/fhir/NamingSystem/observationId",
        "value": "ff866323a997dc74c61ddbf24b9d72396dcc2eec87eb44f2e229412e02d630f1",
        "assigner": {
          "reference": "Organization/3a4f3433bce81181bad2d8e0b8fafccf7dc800bc06f29be73dcb38b750a48f9a"
        }
      } ],
      "status": "final",
      "category": [ {
        "coding": [ {
          "system": "http://terminology.hl7.org/CodeSystem/observation-category",
          "code": "laboratory",
          "display": "Laboratory"
        }, {
          "system": "http://loinc.org",
          "code": "26436-6",
          "display": "Laboratory studies (set)"
        } ]
      } ],
      "code": {
        "coding": [ {
          "system": "http://loinc.org",
          "code": "94500-6"
        } ]
      },
      "subject": {
        "reference": "Patient/21e0d5b45804d2f5674bb1e505832d4facd6199e84a95c681fc99aaee46d33e9"
      },
      "encounter": {
        "reference": "Encounter/3795d720b91ec62c7e68716234034042ecb39df09e6f80bb13e2e4dd320ee705"
      },
      "_effectiveDateTime": {
        "extension": [ {
          "url": "http://hl7.org/fhir/StructureDefinition/data-absent-reason",
          "valueCode": "unknown"
        } ]
      },
      "valueCodeableConcept": {
        "coding": [ {
          "system": "http://snomed.info/sct",
          "code": "260415000"
        } ]
      }
    },
    "request": {
      "method": "POST",
      "url": "Observation",
      "ifNoneExist": "identifier=https://mein.krankenhaus.de/fhir/NamingSystem/observationId|0b0f3ab0b8d415c8c5b2624562e0853287d21f57b0aae3eb61d28d6c63df7c61"
    }
  }, {
    "fullUrl": "Observation/4469430ef70df85ad51803c15f1feb7046d12bca9c5b1d7c137eed534c439caa",
    "resource": {
      "resourceType": "Observation",
      "meta": {
        "profile": [ "https://www.medizininformatik-initiative.de/fhir/core/modul-labor/StructureDefinition/ObservationLab" ]
      },
      "identifier": [ {
        "type": {
          "coding": [ {
            "system": "http://terminology.hl7.org/CodeSystem/v2-0203",
            "code": "OBI",
            "display": "Observation Instance Identifier"
          } ]
        },
        "system": "https://mein.krankenhaus.de/fhir/NamingSystem/observationId",
        "value": "670a1a994819071bf9a2a9a28b17438b86dbdc40231a8eaf704aa72431e25d14",
        "assigner": {
          "reference": "Organization/3a4f3433bce81181bad2d8e0b8fafccf7dc800bc06f29be73dcb38b750a48f9a"
        }
      } ],
      "status": "final",
      "category": [ {
        "coding": [ {
          "system": "http://terminology.hl7.org/CodeSystem/observation-category",
          "code": "laboratory",
          "display": "Laboratory"
        }, {
          "system": "http://loinc.org",
          "code": "26436-6"
        } ]
      } ],
      "code": {
        "coding": [ {
          "system": "http://loinc.org",
          "code": "76485-2",
          "display": "c-reactive-protein-in-serum-or-plasma"
        } ],
        "text": "crp"
      },
      "subject": {
        "reference": "Patient/21e0d5b45804d2f5674bb1e505832d4facd6199e84a95c681fc99aaee46d33e9"
      },
      "encounter": {
        "reference": "Encounter/3795d720b91ec62c7e68716234034042ecb39df09e6f80bb13e2e4dd320ee705"
      },
      "effectiveDateTime": "2020-02-05T09:46:00+00:00",
      "valueQuantity": {
        "value": 3.9804026317918906,
        "unit": "nmol/L",
        "system": "http://unitsofmeasure.org",
        "code": "nmol/L"
      }
    },
    "request": {
      "method": "POST",
      "url": "Observation",
      "ifNoneExist": "identifier=https://mein.krankenhaus.de/fhir/NamingSystem/observationId|4469430ef70df85ad51803c15f1feb7046d12bca9c5b1d7c137eed534c439caa"
    }
  }, {
    "fullUrl": "Observation/eb11e73a4c6f649845366f7191a373b98845df3a059c9feada7fd947705c4730",
    "resource": {
      "resourceType": "Observation",
      "meta": {
        "profile": [ "https://www.medizininformatik-initiative.de/fhir/core/modul-labor/StructureDefinition/ObservationLab" ]
      },
      "identifier": [ {
        "type": {
          "coding": [ {
            "system": "http://terminology.hl7.org/CodeSystem/v2-0203",
            "code": "OBI",
            "display": "Observation Instance Identifier"
          } ]
        },
        "system": "https://mein.krankenhaus.de/fhir/NamingSystem/observationId",
        "value": "c77d0fe628076ec0a5322ceadb433f923ee4ab6e8af64231a02db9c8b1cd69b7",
        "assigner": {
          "reference": "Organization/3a4f3433bce81181bad2d8e0b8fafccf7dc800bc06f29be73dcb38b750a48f9a"
        }
      } ],
      "status": "final",
      "category": [ {
        "coding": [ {
          "system": "http://terminology.hl7.org/CodeSystem/observation-category",
          "code": "laboratory",
          "display": "Laboratory"
        }, {
          "system": "http://loinc.org",
          "code": "26436-6"
        } ]
      } ],
      "code": {
        "coding": [ {
          "system": "http://loinc.org",
          "code": "14723-1",
          "display": "ferritin-in-serum-or-plasma"
        } ],
        "text": "ferritin"
      },
      "subject": {
        "reference": "Patient/21e0d5b45804d2f5674bb1e505832d4facd6199e84a95c681fc99aaee46d33e9"
      },
      "encounter": {
        "reference": "Encounter/3795d720b91ec62c7e68716234034042ecb39df09e6f80bb13e2e4dd320ee705"
      },
      "effectiveDateTime": "2020-02-05T09:46:00+00:00",
      "valueQuantity": {
        "value": 82.35286614088629,
        "unit": "pmol/L",
        "system": "http://unitsofmeasure.org",
        "code": "pmol/L"
      }
    },
    "request": {
      "method": "POST",
      "url": "Observation",
      "ifNoneExist": "identifier=https://mein.krankenhaus.de/fhir/NamingSystem/observationId|eb11e73a4c6f649845366f7191a373b98845df3a059c9feada7fd947705c4730"
    }
  }, {
    "fullUrl": "Observation/b86b972433e7fa560d2e08910e70b1eea445c08340f1a941c6ef4fa1cfe7c7e8",
    "resource": {
      "resourceType": "Observation",
      "meta": {
        "profile": [ "https://www.medizininformatik-initiative.de/fhir/core/modul-labor/StructureDefinition/ObservationLab" ]
      },
      "identifier": [ {
        "type": {
          "coding": [ {
            "system": "http://terminology.hl7.org/CodeSystem/v2-0203",
            "code": "OBI",
            "display": "Observation Instance Identifier"
          } ]
        },
        "system": "https://mein.krankenhaus.de/fhir/NamingSystem/observationId",
        "value": "bf1cfd2ca2759d3fd2063deb47b31482cfdb235a1e988757d888a059d204e11a",
        "assigner": {
          "reference": "Organization/3a4f3433bce81181bad2d8e0b8fafccf7dc800bc06f29be73dcb38b750a48f9a"
        }
      } ],
      "status": "final",
      "category": [ {
        "coding": [ {
          "system": "http://terminology.hl7.org/CodeSystem/observation-category",
          "code": "laboratory",
          "display": "Laboratory"
        }, {
          "system": "http://loinc.org",
          "code": "26436-6"
        } ]
      } ],
      "code": {
        "coding": [ {
          "system": "http://loinc.org",
          "code": "59828-4",
          "display": "bilirubin.total-in-venous-blood"
        } ],
        "text": "bilirubin"
      },
      "subject": {
        "reference": "Patient/21e0d5b45804d2f5674bb1e505832d4facd6199e84a95c681fc99aaee46d33e9"
      },
      "encounter": {
        "reference": "Encounter/3795d720b91ec62c7e68716234034042ecb39df09e6f80bb13e2e4dd320ee705"
      },
      "effectiveDateTime": "2020-02-05T09:46:00+00:00",
      "valueQuantity": {
        "value": 52.68545809007329,
        "unit": "mg/dL",
        "system": "http://unitsofmeasure.org",
        "code": "mg/dL"
      }
    },
    "request": {
      "method": "POST",
      "url": "Observation",
      "ifNoneExist": "identifier=https://mein.krankenhaus.de/fhir/NamingSystem/observationId|b86b972433e7fa560d2e08910e70b1eea445c08340f1a941c6ef4fa1cfe7c7e8"
    }
  }, {
    "fullUrl": "Observation/f6f3fa98a407891a513a7e2dc40b9bac75da8e210eafd0d0e7a248028d225f45",
    "resource": {
      "resourceType": "Observation",
      "meta": {
        "profile": [ "https://www.medizininformatik-initiative.de/fhir/core/modul-labor/StructureDefinition/ObservationLab" ]
      },
      "identifier": [ {
        "type": {
          "coding": [ {
            "system": "http://terminology.hl7.org/CodeSystem/v2-0203",
            "code": "OBI",
            "display": "Observation Instance Identifier"
          } ]
        },
        "system": "https://mein.krankenhaus.de/fhir/NamingSystem/observationId",
        "value": "10f777d8d09e8bb8d853251fc10de508983c08dec03813e799a33fc2ae5e6e4d",
        "assigner": {
          "reference": "Organization/3a4f3433bce81181bad2d8e0b8fafccf7dc800bc06f29be73dcb38b750a48f9a"
        }
      } ],
      "status": "final",
      "category": [ {
        "coding": [ {
          "system": "http://terminology.hl7.org/CodeSystem/observation-category",
          "code": "laboratory",
          "display": "Laboratory"
        }, {
          "system": "http://loinc.org",
          "code": "26436-6"
        } ]
      } ],
      "code": {
        "coding": [ {
          "system": "http://loinc.org",
          "code": "71427-9",
          "display": "fibrin-d-dimer-feu-in-blood-by-immunoassay"
        } ],
        "text": "ddimer"
      },
      "subject": {
        "reference": "Patient/21e0d5b45804d2f5674bb1e505832d4facd6199e84a95c681fc99aaee46d33e9"
      },
      "encounter": {
        "reference": "Encounter/3795d720b91ec62c7e68716234034042ecb39df09e6f80bb13e2e4dd320ee705"
      },
      "effectiveDateTime": "2020-02-05T09:46:00+00:00",
      "valueQuantity": {
        "value": 62.39817329651277,
        "unit": "ng/mL{FEU}",
        "system": "http://unitsofmeasure.org",
        "code": "ng/mL{FEU}"
      }
    },
    "request": {
      "method": "POST",
      "url": "Observation",
      "ifNoneExist": "identifier=https://mein.krankenhaus.de/fhir/NamingSystem/observationId|f6f3fa98a407891a513a7e2dc40b9bac75da8e210eafd0d0e7a248028d225f45"
    }
  }, {
    "fullUrl": "Observation/7a56c1263e2496f2d513691db7a7510fe4158fd652867be7f0ff39ebf371c79b",
    "resource": {
      "resourceType": "Observation",
      "meta": {
        "profile": [ "https://www.medizininformatik-initiative.de/fhir/core/modul-labor/StructureDefinition/ObservationLab" ]
      },
      "identifier": [ {
        "type": {
          "coding": [ {
            "system": "http://terminology.hl7.org/CodeSystem/v2-0203",
            "code": "OBI",
            "display": "Observation Instance Identifier"
          } ]
        },
        "system": "https://mein.krankenhaus.de/fhir/NamingSystem/observationId",
        "value": "b76fc2cff9270dc25359a290458a39b1cda08f2bb127239073322015a8f158e5",
        "assigner": {
          "reference": "Organization/3a4f3433bce81181bad2d8e0b8fafccf7dc800bc06f29be73dcb38b750a48f9a"
        }
      } ],
      "status": "final",
      "category": [ {
        "coding": [ {
          "system": "http://terminology.hl7.org/CodeSystem/observation-category",
          "code": "laboratory",
          "display": "Laboratory"
        }, {
          "system": "http://loinc.org",
          "code": "26436-6"
        } ]
      } ],
      "code": {
        "coding": [ {
          "system": "http://loinc.org",
          "code": "2324-2",
          "display": "gamma-glutamyl-transferase-in-serum-or-plasma"
        } ],
        "text": "gammagt"
      },
      "subject": {
        "reference": "Patient/21e0d5b45804d2f5674bb1e505832d4facd6199e84a95c681fc99aaee46d33e9"
      },
      "encounter": {
        "reference": "Encounter/3795d720b91ec62c7e68716234034042ecb39df09e6f80bb13e2e4dd320ee705"
      },
      "effectiveDateTime": "2020-02-05T09:46:00+00:00",
      "valueQuantity": {
        "value": 59.10548518996323,
        "unit": "U/L",
        "system": "http://unitsofmeasure.org",
        "code": "U/L"
      }
    },
    "request": {
      "method": "POST",
      "url": "Observation",
      "ifNoneExist": "identifier=https://mein.krankenhaus.de/fhir/NamingSystem/observationId|7a56c1263e2496f2d513691db7a7510fe4158fd652867be7f0ff39ebf371c79b"
    }
  }, {
    "fullUrl": "Observation/74f8db8cfef3936dac47d0b8fe7970422a37e83aa7545bd15d127fefb03e34bf",
    "resource": {
      "resourceType": "Observation",
      "meta": {
        "profile": [ "https://www.medizininformatik-initiative.de/fhir/core/modul-labor/StructureDefinition/ObservationLab" ]
      },
      "identifier": [ {
        "type": {
          "coding": [ {
            "system": "http://terminology.hl7.org/CodeSystem/v2-0203",
            "code": "OBI",
            "display": "Observation Instance Identifier"
          } ]
        },
        "system": "https://mein.krankenhaus.de/fhir/NamingSystem/observationId",
        "value": "d18affe530bdf570817c3f4fc7fbad0f99f61502c6ac3b63f0cbdd78ad9bbedd",
        "assigner": {
          "reference": "Organization/3a4f3433bce81181bad2d8e0b8fafccf7dc800bc06f29be73dcb38b750a48f9a"
        }
      } ],
      "status": "final",
      "category": [ {
        "coding": [ {
          "system": "http://terminology.hl7.org/CodeSystem/observation-category",
          "code": "laboratory",
          "display": "Laboratory"
        }, {
          "system": "http://loinc.org",
          "code": "26436-6"
        } ]
      } ],
      "code": {
        "coding": [ {
          "system": "http://loinc.org",
          "code": "88112-8",
          "display": "aspartate-aminotransferase-in-serum-or-plasma-by-no-addition-of-p-5-p"
        } ],
        "text": "gotast"
      },
      "subject": {
        "reference": "Patient/21e0d5b45804d2f5674bb1e505832d4facd6199e84a95c681fc99aaee46d33e9"
      },
      "encounter": {
        "reference": "Encounter/3795d720b91ec62c7e68716234034042ecb39df09e6f80bb13e2e4dd320ee705"
      },
      "effectiveDateTime": "2020-02-05T09:46:00+00:00",
      "valueQuantity": {
        "value": 88.36960505715409,
        "unit": "U/L",
        "system": "http://unitsofmeasure.org",
        "code": "U/L"
      }
    },
    "request": {
      "method": "POST",
      "url": "Observation",
      "ifNoneExist": "identifier=https://mein.krankenhaus.de/fhir/NamingSystem/observationId|74f8db8cfef3936dac47d0b8fe7970422a37e83aa7545bd15d127fefb03e34bf"
    }
  }, {
    "fullUrl": "Observation/f896f077c08292bffcc9f3209e6b9e07645b966337d13f627fd62ea45369160f",
    "resource": {
      "resourceType": "Observation",
      "meta": {
        "profile": [ "https://www.medizininformatik-initiative.de/fhir/core/modul-labor/StructureDefinition/ObservationLab" ]
      },
      "identifier": [ {
        "type": {
          "coding": [ {
            "system": "http://terminology.hl7.org/CodeSystem/v2-0203",
            "code": "OBI",
            "display": "Observation Instance Identifier"
          } ]
        },
        "system": "https://mein.krankenhaus.de/fhir/NamingSystem/observationId",
        "value": "8ab50ad1de0714c52fd54aef2e72e283238e334886f9ae8161eeb086033d1fa4",
        "assigner": {
          "reference": "Organization/3a4f3433bce81181bad2d8e0b8fafccf7dc800bc06f29be73dcb38b750a48f9a"
        }
      } ],
      "status": "final",
      "category": [ {
        "coding": [ {
          "system": "http://terminology.hl7.org/CodeSystem/observation-category",
          "code": "laboratory",
          "display": "Laboratory"
        }, {
          "system": "http://loinc.org",
          "code": "26436-6"
        } ]
      } ],
      "code": {
        "coding": [ {
          "system": "http://loinc.org",
          "code": "60017-1",
          "display": "lactate-dehydrogenase-in-body-fluid-by-pyruvate-to-lactate-reaction"
        } ],
        "text": "ldh"
      },
      "subject": {
        "reference": "Patient/21e0d5b45804d2f5674bb1e505832d4facd6199e84a95c681fc99aaee46d33e9"
      },
      "encounter": {
        "reference": "Encounter/3795d720b91ec62c7e68716234034042ecb39df09e6f80bb13e2e4dd320ee705"
      },
      "effectiveDateTime": "2020-02-05T09:46:00+00:00",
      "valueQuantity": {
        "value": 46.23079407518149,
        "unit": "U/L",
        "system": "http://unitsofmeasure.org",
        "code": "U/L"
      }
    },
    "request": {
      "method": "POST",
      "url": "Observation",
      "ifNoneExist": "identifier=https://mein.krankenhaus.de/fhir/NamingSystem/observationId|f896f077c08292bffcc9f3209e6b9e07645b966337d13f627fd62ea45369160f"
    }
  }, {
    "fullUrl": "Observation/069ccbe0130a239cc8633400a61412afe7ba6b4ebeca708098b68d938b07f661",
    "resource": {
      "resourceType": "Observation",
      "meta": {
        "profile": [ "https://www.medizininformatik-initiative.de/fhir/core/modul-labor/StructureDefinition/ObservationLab" ]
      },
      "identifier": [ {
        "type": {
          "coding": [ {
            "system": "http://terminology.hl7.org/CodeSystem/v2-0203",
            "code": "OBI",
            "display": "Observation Instance Identifier"
          } ]
        },
        "system": "https://mein.krankenhaus.de/fhir/NamingSystem/observationId",
        "value": "613172a6b5d147134440507d403cc35f838816163223267c23e329864d5fdc99",
        "assigner": {
          "reference": "Organization/3a4f3433bce81181bad2d8e0b8fafccf7dc800bc06f29be73dcb38b750a48f9a"
        }
      } ],
      "status": "final",
      "category": [ {
        "coding": [ {
          "system": "http://terminology.hl7.org/CodeSystem/observation-category",
          "code": "laboratory",
          "display": "Laboratory"
        }, {
          "system": "http://loinc.org",
          "code": "26436-6"
        } ]
      } ],
      "code": {
        "coding": [ {
          "system": "http://loinc.org",
          "code": "55782-7",
          "display": "hemoglobin-in-blood-by-oximetry"
        } ],
        "text": "hamoglobin"
      },
      "subject": {
        "reference": "Patient/21e0d5b45804d2f5674bb1e505832d4facd6199e84a95c681fc99aaee46d33e9"
      },
      "encounter": {
        "reference": "Encounter/3795d720b91ec62c7e68716234034042ecb39df09e6f80bb13e2e4dd320ee705"
      },
      "effectiveDateTime": "2020-02-05T09:46:00+00:00",
      "valueQuantity": {
        "value": 42.29972900991443,
        "unit": "g/dL",
        "system": "http://unitsofmeasure.org",
        "code": "g/dL"
      }
    },
    "request": {
      "method": "POST",
      "url": "Observation",
      "ifNoneExist": "identifier=https://mein.krankenhaus.de/fhir/NamingSystem/observationId|069ccbe0130a239cc8633400a61412afe7ba6b4ebeca708098b68d938b07f661"
    }
  }, {
    "fullUrl": "Observation/6214414fa6fff1a9a90dacb25137fa0108db4dadfa8af6917975a7d54c35976d",
    "resource": {
      "resourceType": "Observation",
      "meta": {
        "profile": [ "https://www.medizininformatik-initiative.de/fhir/core/modul-labor/StructureDefinition/ObservationLab" ]
      },
      "identifier": [ {
        "type": {
          "coding": [ {
            "system": "http://terminology.hl7.org/CodeSystem/v2-0203",
            "code": "OBI",
            "display": "Observation Instance Identifier"
          } ]
        },
        "system": "https://mein.krankenhaus.de/fhir/NamingSystem/observationId",
        "value": "22b1d8a0cfb731095950a822a0effcc587486faa9db4844232c4fda9cd21f0ff",
        "assigner": {
          "reference": "Organization/3a4f3433bce81181bad2d8e0b8fafccf7dc800bc06f29be73dcb38b750a48f9a"
        }
      } ],
      "status": "final",
      "category": [ {
        "coding": [ {
          "system": "http://terminology.hl7.org/CodeSystem/observation-category",
          "code": "laboratory",
          "display": "Laboratory"
        }, {
          "system": "http://loinc.org",
          "code": "26436-6"
        } ]
      } ],
      "code": {
        "coding": [ {
          "system": "http://loinc.org",
          "code": "25386-4",
          "display": "creatinine-in-body-fluid"
        } ],
        "text": "kreatinin"
      },
      "subject": {
        "reference": "Patient/21e0d5b45804d2f5674bb1e505832d4facd6199e84a95c681fc99aaee46d33e9"
      },
      "encounter": {
        "reference": "Encounter/3795d720b91ec62c7e68716234034042ecb39df09e6f80bb13e2e4dd320ee705"
      },
      "effectiveDateTime": "2020-02-05T09:46:00+00:00",
      "valueQuantity": {
        "value": 7.818253701986089,
        "unit": "umol/L",
        "system": "http://unitsofmeasure.org",
        "code": "umol/L"
      }
    },
    "request": {
      "method": "POST",
      "url": "Observation",
      "ifNoneExist": "identifier=https://mein.krankenhaus.de/fhir/NamingSystem/observationId|6214414fa6fff1a9a90dacb25137fa0108db4dadfa8af6917975a7d54c35976d"
    }
  }, {
    "fullUrl": "Observation/b2ed559cde70d70921d40928208e29517755a9088a6cbf6fc0bd3f01328e9b8d",
    "resource": {
      "resourceType": "Observation",
      "meta": {
        "profile": [ "https://www.medizininformatik-initiative.de/fhir/core/modul-labor/StructureDefinition/ObservationLab" ]
      },
      "identifier": [ {
        "type": {
          "coding": [ {
            "system": "http://terminology.hl7.org/CodeSystem/v2-0203",
            "code": "OBI",
            "display": "Observation Instance Identifier"
          } ]
        },
        "system": "https://mein.krankenhaus.de/fhir/NamingSystem/observationId",
        "value": "2e28cdb726296dbd64c254cd26e61c0f761e91b2de64e2d5863d605539acebfb",
        "assigner": {
          "reference": "Organization/3a4f3433bce81181bad2d8e0b8fafccf7dc800bc06f29be73dcb38b750a48f9a"
        }
      } ],
      "status": "final",
      "category": [ {
        "coding": [ {
          "system": "http://terminology.hl7.org/CodeSystem/observation-category",
          "code": "laboratory",
          "display": "Laboratory"
        }, {
          "system": "http://loinc.org",
          "code": "26436-6"
        } ]
      } ],
      "code": {
        "coding": [ {
          "system": "http://loinc.org",
          "code": "30242-2",
          "display": "lactate-in-arterial-blood"
        } ],
        "text": "laktat"
      },
      "subject": {
        "reference": "Patient/21e0d5b45804d2f5674bb1e505832d4facd6199e84a95c681fc99aaee46d33e9"
      },
      "encounter": {
        "reference": "Encounter/3795d720b91ec62c7e68716234034042ecb39df09e6f80bb13e2e4dd320ee705"
      },
      "effectiveDateTime": "2020-02-05T09:46:00+00:00",
      "valueQuantity": {
        "value": 15.792104739234226,
        "unit": "mg/dL",
        "system": "http://unitsofmeasure.org",
        "code": "mg/dL"
      }
    },
    "request": {
      "method": "POST",
      "url": "Observation",
      "ifNoneExist": "identifier=https://mein.krankenhaus.de/fhir/NamingSystem/observationId|b2ed559cde70d70921d40928208e29517755a9088a6cbf6fc0bd3f01328e9b8d"
    }
  }, {
    "fullUrl": "Observation/1369bcd3ce3d3b97c585686c1adb9ed64d24284383d5c9116c1a62012a4dc4de",
    "resource": {
      "resourceType": "Observation",
      "meta": {
        "profile": [ "https://www.medizininformatik-initiative.de/fhir/core/modul-labor/StructureDefinition/ObservationLab" ]
      },
      "identifier": [ {
        "type": {
          "coding": [ {
            "system": "http://terminology.hl7.org/CodeSystem/v2-0203",
            "code": "OBI",
            "display": "Observation Instance Identifier"
          } ]
        },
        "system": "https://mein.krankenhaus.de/fhir/NamingSystem/observationId",
        "value": "87c2c66cb9988f0da0734cceab5826f8d868db8c02c51c307e2768949401cf71",
        "assigner": {
          "reference": "Organization/3a4f3433bce81181bad2d8e0b8fafccf7dc800bc06f29be73dcb38b750a48f9a"
        }
      } ],
      "status": "final",
      "category": [ {
        "coding": [ {
          "system": "http://terminology.hl7.org/CodeSystem/observation-category",
          "code": "laboratory",
          "display": "Laboratory"
        }, {
          "system": "http://loinc.org",
          "code": "26436-6"
        } ]
      } ],
      "code": {
        "coding": [ {
          "system": "http://loinc.org",
          "code": "804-5",
          "display": "leukocytes-in-blood-by-manual-count"
        } ],
        "text": "leukozyten_absolut"
      },
      "subject": {
        "reference": "Patient/21e0d5b45804d2f5674bb1e505832d4facd6199e84a95c681fc99aaee46d33e9"
      },
      "encounter": {
        "reference": "Encounter/3795d720b91ec62c7e68716234034042ecb39df09e6f80bb13e2e4dd320ee705"
      },
      "effectiveDateTime": "2020-02-05T09:46:00+00:00",
      "valueQuantity": {
        "value": 61.72570602482854,
        "unit": "10*3/uL",
        "system": "http://unitsofmeasure.org",
        "code": "10*3/uL"
      }
    },
    "request": {
      "method": "POST",
      "url": "Observation",
      "ifNoneExist": "identifier=https://mein.krankenhaus.de/fhir/NamingSystem/observationId|1369bcd3ce3d3b97c585686c1adb9ed64d24284383d5c9116c1a62012a4dc4de"
    }
  }, {
    "fullUrl": "Observation/35bb4ce458bc388b1a508b48b08b3609d03fc410f41316281af203e1833998fc",
    "resource": {
      "resourceType": "Observation",
      "meta": {
        "profile": [ "https://www.medizininformatik-initiative.de/fhir/core/modul-labor/StructureDefinition/ObservationLab" ]
      },
      "identifier": [ {
        "type": {
          "coding": [ {
            "system": "http://terminology.hl7.org/CodeSystem/v2-0203",
            "code": "OBI",
            "display": "Observation Instance Identifier"
          } ]
        },
        "system": "https://mein.krankenhaus.de/fhir/NamingSystem/observationId",
        "value": "79ee0e6b901dd3210d569cbfc63112d75c80e0abd10e86cecb72d44f5db84d9f",
        "assigner": {
          "reference": "Organization/3a4f3433bce81181bad2d8e0b8fafccf7dc800bc06f29be73dcb38b750a48f9a"
        }
      } ],
      "status": "final",
      "category": [ {
        "coding": [ {
          "system": "http://terminology.hl7.org/CodeSystem/observation-category",
          "code": "laboratory",
          "display": "Laboratory"
        }, {
          "system": "http://loinc.org",
          "code": "26436-6"
        } ]
      } ],
      "code": {
        "coding": [ {
          "system": "http://loinc.org",
          "code": "30364-4",
          "display": "lymphocytes-in-blood-by-flow-cytometry-fc"
        } ],
        "text": "lymphozyten_absolut"
      },
      "subject": {
        "reference": "Patient/21e0d5b45804d2f5674bb1e505832d4facd6199e84a95c681fc99aaee46d33e9"
      },
      "encounter": {
        "reference": "Encounter/3795d720b91ec62c7e68716234034042ecb39df09e6f80bb13e2e4dd320ee705"
      },
      "effectiveDateTime": "2020-02-05T09:46:00+00:00",
      "valueQuantity": {
        "value": 59.47758378604365,
        "unit": "10*3/uL",
        "system": "http://unitsofmeasure.org",
        "code": "10*3/uL"
      }
    },
    "request": {
      "method": "POST",
      "url": "Observation",
      "ifNoneExist": "identifier=https://mein.krankenhaus.de/fhir/NamingSystem/observationId|35bb4ce458bc388b1a508b48b08b3609d03fc410f41316281af203e1833998fc"
    }
  }, {
    "fullUrl": "Observation/be55724fad9373897833d662b70485cd8bd08f48ad1cae5a4da5762720677515",
    "resource": {
      "resourceType": "Observation",
      "meta": {
        "profile": [ "https://www.medizininformatik-initiative.de/fhir/core/modul-labor/StructureDefinition/ObservationLab" ]
      },
      "identifier": [ {
        "type": {
          "coding": [ {
            "system": "http://terminology.hl7.org/CodeSystem/v2-0203",
            "code": "OBI",
            "display": "Observation Instance Identifier"
          } ]
        },
        "system": "https://mein.krankenhaus.de/fhir/NamingSystem/observationId",
        "value": "ed9d2d6f6c1c65a55420c00a82ae22f89f48f92295fea801d465930c7cb989b8",
        "assigner": {
          "reference": "Organization/3a4f3433bce81181bad2d8e0b8fafccf7dc800bc06f29be73dcb38b750a48f9a"
        }
      } ],
      "status": "final",
      "category": [ {
        "coding": [ {
          "system": "http://terminology.hl7.org/CodeSystem/observation-category",
          "code": "laboratory",
          "display": "Laboratory"
        }, {
          "system": "http://loinc.org",
          "code": "26436-6"
        } ]
      } ],
      "code": {
        "coding": [ {
          "system": "http://loinc.org",
          "code": "26499-4",
          "display": "neutrophils-in-blood"
        } ],
        "text": "neutrophile_absolut"
      },
      "subject": {
        "reference": "Patient/21e0d5b45804d2f5674bb1e505832d4facd6199e84a95c681fc99aaee46d33e9"
      },
      "encounter": {
        "reference": "Encounter/3795d720b91ec62c7e68716234034042ecb39df09e6f80bb13e2e4dd320ee705"
      },
      "effectiveDateTime": "2020-02-05T09:46:00+00:00",
      "valueQuantity": {
        "value": 28.396881821033947,
        "unit": "10*3/uL",
        "system": "http://unitsofmeasure.org",
        "code": "10*3/uL"
      }
    },
    "request": {
      "method": "POST",
      "url": "Observation",
      "ifNoneExist": "identifier=https://mein.krankenhaus.de/fhir/NamingSystem/observationId|be55724fad9373897833d662b70485cd8bd08f48ad1cae5a4da5762720677515"
    }
  }, {
    "fullUrl": "Observation/6e98f62234362a7e6fc200926038827c337f391e2064bc176f2596357e40935a",
    "resource": {
      "resourceType": "Observation",
      "meta": {
        "profile": [ "https://www.medizininformatik-initiative.de/fhir/core/modul-labor/StructureDefinition/ObservationLab" ]
      },
      "identifier": [ {
        "type": {
          "coding": [ {
            "system": "http://terminology.hl7.org/CodeSystem/v2-0203",
            "code": "OBI",
            "display": "Observation Instance Identifier"
          } ]
        },
        "system": "https://mein.krankenhaus.de/fhir/NamingSystem/observationId",
        "value": "5c2782edb47a8594b4399fc1bff121994122ef370d24de3bd7318d509523da86",
        "assigner": {
          "reference": "Organization/3a4f3433bce81181bad2d8e0b8fafccf7dc800bc06f29be73dcb38b750a48f9a"
        }
      } ],
      "status": "final",
      "category": [ {
        "coding": [ {
          "system": "http://terminology.hl7.org/CodeSystem/observation-category",
          "code": "laboratory",
          "display": "Laboratory"
        }, {
          "system": "http://loinc.org",
          "code": "26436-6"
        } ]
      } ],
      "code": {
        "coding": [ {
          "system": "http://loinc.org",
          "code": "3173-2",
          "display": "aptt-in-blood-by-coagulation-assay"
        } ],
        "text": "ptt"
      },
      "subject": {
        "reference": "Patient/21e0d5b45804d2f5674bb1e505832d4facd6199e84a95c681fc99aaee46d33e9"
      },
      "encounter": {
        "reference": "Encounter/3795d720b91ec62c7e68716234034042ecb39df09e6f80bb13e2e4dd320ee705"
      },
      "effectiveDateTime": "2020-02-05T09:46:00+00:00",
      "valueQuantity": {
        "value": 40.01263518609217,
        "unit": "s",
        "system": "http://unitsofmeasure.org",
        "code": "s"
      }
    },
    "request": {
      "method": "POST",
      "url": "Observation",
      "ifNoneExist": "identifier=https://mein.krankenhaus.de/fhir/NamingSystem/observationId|6e98f62234362a7e6fc200926038827c337f391e2064bc176f2596357e40935a"
    }
  }, {
    "fullUrl": "Observation/ff91efce04f922d771fe056a150eb60234bf1755aa6eee4b24f2ae86a0adbc36",
    "resource": {
      "resourceType": "Observation",
      "meta": {
        "profile": [ "https://www.medizininformatik-initiative.de/fhir/core/modul-labor/StructureDefinition/ObservationLab" ]
      },
      "identifier": [ {
        "type": {
          "coding": [ {
            "system": "http://terminology.hl7.org/CodeSystem/v2-0203",
            "code": "OBI",
            "display": "Observation Instance Identifier"
          } ]
        },
        "system": "https://mein.krankenhaus.de/fhir/NamingSystem/observationId",
        "value": "36511b6f4353ffff1b93e34614c2670ca2ad63e5c049c9b0099132ee782004b5",
        "assigner": {
          "reference": "Organization/3a4f3433bce81181bad2d8e0b8fafccf7dc800bc06f29be73dcb38b750a48f9a"
        }
      } ],
      "status": "final",
      "category": [ {
        "coding": [ {
          "system": "http://terminology.hl7.org/CodeSystem/observation-category",
          "code": "laboratory",
          "display": "Laboratory"
        }, {
          "system": "http://loinc.org",
          "code": "26436-6"
        } ]
      } ],
      "code": {
        "coding": [ {
          "system": "http://loinc.org",
          "code": "74775-8",
          "display": "platelets-in-platelet-rich-plasma-by-automated-count"
        } ],
        "text": "thrombozyten_absolut"
      },
      "subject": {
        "reference": "Patient/21e0d5b45804d2f5674bb1e505832d4facd6199e84a95c681fc99aaee46d33e9"
      },
      "encounter": {
        "reference": "Encounter/3795d720b91ec62c7e68716234034042ecb39df09e6f80bb13e2e4dd320ee705"
      },
      "effectiveDateTime": "2020-02-05T09:46:00+00:00",
      "valueQuantity": {
        "value": 86.9396256345734,
        "unit": "10*3/uL",
        "system": "http://unitsofmeasure.org",
        "code": "10*3/uL"
      }
    },
    "request": {
      "method": "POST",
      "url": "Observation",
      "ifNoneExist": "identifier=https://mein.krankenhaus.de/fhir/NamingSystem/observationId|ff91efce04f922d771fe056a150eb60234bf1755aa6eee4b24f2ae86a0adbc36"
    }
  }, {
    "fullUrl": "Observation/4451ee7c20aa0042cf29b0450d3c3b1b5b224af64641536ff8b84caf18a00fcf",
    "resource": {
      "resourceType": "Observation",
      "meta": {
        "profile": [ "https://www.medizininformatik-initiative.de/fhir/core/modul-labor/StructureDefinition/ObservationLab" ]
      },
      "identifier": [ {
        "type": {
          "coding": [ {
            "system": "http://terminology.hl7.org/CodeSystem/v2-0203",
            "code": "OBI",
            "display": "Observation Instance Identifier"
          } ]
        },
        "system": "https://mein.krankenhaus.de/fhir/NamingSystem/observationId",
        "value": "35a1397c8523fbab4038886187306079b915b764fd072d89337ff5f9391ed33c",
        "assigner": {
          "reference": "Organization/3a4f3433bce81181bad2d8e0b8fafccf7dc800bc06f29be73dcb38b750a48f9a"
        }
      } ],
      "status": "final",
      "category": [ {
        "coding": [ {
          "system": "http://terminology.hl7.org/CodeSystem/observation-category",
          "code": "laboratory",
          "display": "Laboratory"
        }, {
          "system": "http://loinc.org",
          "code": "26436-6"
        } ]
      } ],
      "code": {
        "coding": [ {
          "system": "http://loinc.org",
          "code": "6301-6",
          "display": "inr-in-platelet-poor-plasma-by-coagulation-assay"
        } ],
        "text": "inr"
      },
      "subject": {
        "reference": "Patient/21e0d5b45804d2f5674bb1e505832d4facd6199e84a95c681fc99aaee46d33e9"
      },
      "encounter": {
        "reference": "Encounter/3795d720b91ec62c7e68716234034042ecb39df09e6f80bb13e2e4dd320ee705"
      },
      "effectiveDateTime": "2020-02-05T09:46:00+00:00",
      "valueQuantity": {
        "value": 32.15514188891373,
        "unit": "{INR}",
        "system": "http://unitsofmeasure.org",
        "code": "{INR}"
      }
    },
    "request": {
      "method": "POST",
      "url": "Observation",
      "ifNoneExist": "identifier=https://mein.krankenhaus.de/fhir/NamingSystem/observationId|4451ee7c20aa0042cf29b0450d3c3b1b5b224af64641536ff8b84caf18a00fcf"
    }
  }, {
    "fullUrl": "Observation/d364c770275249b20a28821d02c983fd8d180a779396fcb20619aebd5f43b72b",
    "resource": {
      "resourceType": "Observation",
      "meta": {
        "profile": [ "https://www.medizininformatik-initiative.de/fhir/core/modul-labor/StructureDefinition/ObservationLab" ]
      },
      "identifier": [ {
        "type": {
          "coding": [ {
            "system": "http://terminology.hl7.org/CodeSystem/v2-0203",
            "code": "OBI",
            "display": "Observation Instance Identifier"
          } ]
        },
        "system": "https://mein.krankenhaus.de/fhir/NamingSystem/observationId",
        "value": "3095b17e9022cacbd2be4aeb1a38506c754a77c2a6126e4fbdff66f08b497c10",
        "assigner": {
          "reference": "Organization/3a4f3433bce81181bad2d8e0b8fafccf7dc800bc06f29be73dcb38b750a48f9a"
        }
      } ],
      "status": "final",
      "category": [ {
        "coding": [ {
          "system": "http://terminology.hl7.org/CodeSystem/observation-category",
          "code": "laboratory",
          "display": "Laboratory"
        }, {
          "system": "http://loinc.org",
          "code": "26436-6"
        } ]
      } ],
      "code": {
        "coding": [ {
          "system": "http://loinc.org",
          "code": "2862-1",
          "display": "albumin-in-serum-or-plasma-by-electrophoresis"
        } ],
        "text": "serumalbumin"
      },
      "subject": {
        "reference": "Patient/21e0d5b45804d2f5674bb1e505832d4facd6199e84a95c681fc99aaee46d33e9"
      },
      "encounter": {
        "reference": "Encounter/3795d720b91ec62c7e68716234034042ecb39df09e6f80bb13e2e4dd320ee705"
      },
      "effectiveDateTime": "2020-02-05T09:46:00+00:00",
      "valueQuantity": {
        "value": 40.090122073012736,
        "unit": "g/dL",
        "system": "http://unitsofmeasure.org",
        "code": "g/dL"
      }
    },
    "request": {
      "method": "POST",
      "url": "Observation",
      "ifNoneExist": "identifier=https://mein.krankenhaus.de/fhir/NamingSystem/observationId|d364c770275249b20a28821d02c983fd8d180a779396fcb20619aebd5f43b72b"
    }
  }, {
    "fullUrl": "Observation/fb289e01dfbd353fd27177d749bec1f5b228c22474126d26a83e7ccd7f1117bd",
    "resource": {
      "resourceType": "Observation",
      "meta": {
        "profile": [ "https://www.medizininformatik-initiative.de/fhir/core/modul-labor/StructureDefinition/ObservationLab" ]
      },
      "identifier": [ {
        "type": {
          "coding": [ {
            "system": "http://terminology.hl7.org/CodeSystem/v2-0203",
            "code": "OBI",
            "display": "Observation Instance Identifier"
          } ]
        },
        "system": "https://mein.krankenhaus.de/fhir/NamingSystem/observationId",
        "value": "b4522cba2407c51f43d5f40181d97ea3528d78aa4ca8dd0a0bad6aa70d7124a3",
        "assigner": {
          "reference": "Organization/3a4f3433bce81181bad2d8e0b8fafccf7dc800bc06f29be73dcb38b750a48f9a"
        }
      } ],
      "status": "final",
      "category": [ {
        "coding": [ {
          "system": "http://terminology.hl7.org/CodeSystem/observation-category",
          "code": "laboratory",
          "display": "Laboratory"
        }, {
          "system": "http://loinc.org",
          "code": "26436-6"
        } ]
      } ],
      "code": {
        "coding": [ {
          "system": "http://loinc.org",
          "code": "75241-0",
          "display": "procalcitonin-in-serum-or-plasma-by-immunoassay"
        } ],
        "text": "pct_procalcitonin"
      },
      "subject": {
        "reference": "Patient/21e0d5b45804d2f5674bb1e505832d4facd6199e84a95c681fc99aaee46d33e9"
      },
      "encounter": {
        "reference": "Encounter/3795d720b91ec62c7e68716234034042ecb39df09e6f80bb13e2e4dd320ee705"
      },
      "effectiveDateTime": "2020-02-05T09:46:00+00:00",
      "valueQuantity": {
        "value": 34.71832732738505,
        "unit": "ng/mL",
        "system": "http://unitsofmeasure.org",
        "code": "ng/mL"
      }
    },
    "request": {
      "method": "POST",
      "url": "Observation",
      "ifNoneExist": "identifier=https://mein.krankenhaus.de/fhir/NamingSystem/observationId|fb289e01dfbd353fd27177d749bec1f5b228c22474126d26a83e7ccd7f1117bd"
    }
  }, {
    "fullUrl": "Observation/e043a9a125ae6581d5f975dcbf65c239574df6fa7ebaf0c374441149ae5f1b52",
    "resource": {
      "resourceType": "Observation",
      "meta": {
        "profile": [ "https://www.medizininformatik-initiative.de/fhir/core/modul-labor/StructureDefinition/ObservationLab" ]
      },
      "identifier": [ {
        "type": {
          "coding": [ {
            "system": "http://terminology.hl7.org/CodeSystem/v2-0203",
            "code": "OBI",
            "display": "Observation Instance Identifier"
          } ]
        },
        "system": "https://mein.krankenhaus.de/fhir/NamingSystem/observationId",
        "value": "743c5f0db1e4a8d3496b9d5d52b350e46e3768b31bf4e664c323293e2029c81a",
        "assigner": {
          "reference": "Organization/3a4f3433bce81181bad2d8e0b8fafccf7dc800bc06f29be73dcb38b750a48f9a"
        }
      } ],
      "status": "final",
      "category": [ {
        "coding": [ {
          "system": "http://terminology.hl7.org/CodeSystem/observation-category",
          "code": "laboratory",
          "display": "Laboratory"
        }, {
          "system": "http://loinc.org",
          "code": "26436-6"
        } ]
      } ],
      "code": {
        "coding": [ {
          "system": "http://loinc.org",
          "code": "26881-3",
          "display": "interleukin-6-in-serum-or-plasma"
        } ],
        "text": "il6_interleukin_6"
      },
      "subject": {
        "reference": "Patient/21e0d5b45804d2f5674bb1e505832d4facd6199e84a95c681fc99aaee46d33e9"
      },
      "encounter": {
        "reference": "Encounter/3795d720b91ec62c7e68716234034042ecb39df09e6f80bb13e2e4dd320ee705"
      },
      "effectiveDateTime": "2020-02-05T09:46:00+00:00",
      "valueQuantity": {
        "value": 53.52880161856467,
        "unit": "pg/mL",
        "system": "http://unitsofmeasure.org",
        "code": "pg/mL"
      }
    },
    "request": {
      "method": "POST",
      "url": "Observation",
      "ifNoneExist": "identifier=https://mein.krankenhaus.de/fhir/NamingSystem/observationId|e043a9a125ae6581d5f975dcbf65c239574df6fa7ebaf0c374441149ae5f1b52"
    }
  }, {
    "fullUrl": "Observation/db1608d863d5613b576b3e6b6de24edbf2f697af7978b111e776f84de8abb440",
    "resource": {
      "resourceType": "Observation",
      "meta": {
        "profile": [ "https://www.medizininformatik-initiative.de/fhir/core/modul-labor/StructureDefinition/ObservationLab" ]
      },
      "identifier": [ {
        "type": {
          "coding": [ {
            "system": "http://terminology.hl7.org/CodeSystem/v2-0203",
            "code": "OBI",
            "display": "Observation Instance Identifier"
          } ]
        },
        "system": "https://mein.krankenhaus.de/fhir/NamingSystem/observationId",
        "value": "96c226fda2d0ea96f0e37cdea3946cb573f6659858d1730c1eed1ff705cc83ba",
        "assigner": {
          "reference": "Organization/3a4f3433bce81181bad2d8e0b8fafccf7dc800bc06f29be73dcb38b750a48f9a"
        }
      } ],
      "status": "final",
      "category": [ {
        "coding": [ {
          "system": "http://terminology.hl7.org/CodeSystem/observation-category",
          "code": "laboratory",
          "display": "Laboratory"
        }, {
          "system": "http://loinc.org",
          "code": "26436-6"
        } ]
      } ],
      "code": {
        "coding": [ {
          "system": "http://loinc.org",
          "code": "33762-6",
          "display": "natriuretic-peptide.b-prohormone-n-terminal-in-serum-or-plasma"
        } ],
        "text": "ntprobnp"
      },
      "subject": {
        "reference": "Patient/21e0d5b45804d2f5674bb1e505832d4facd6199e84a95c681fc99aaee46d33e9"
      },
      "encounter": {
        "reference": "Encounter/3795d720b91ec62c7e68716234034042ecb39df09e6f80bb13e2e4dd320ee705"
      },
      "effectiveDateTime": "2020-02-05T09:46:00+00:00",
      "valueQuantity": {
        "value": 48.428738968683824,
        "unit": "pg/mL",
        "system": "http://unitsofmeasure.org",
        "code": "pg/mL"
      }
    },
    "request": {
      "method": "POST",
      "url": "Observation",
      "ifNoneExist": "identifier=https://mein.krankenhaus.de/fhir/NamingSystem/observationId|db1608d863d5613b576b3e6b6de24edbf2f697af7978b111e776f84de8abb440"
    }
  }, {
    "fullUrl": "Observation/82a1060b066240b0e872e91d9acfe69c2574ca7a06cb78663fb1218f5ec2859f",
    "resource": {
      "resourceType": "Observation",
      "meta": {
        "profile": [ "https://www.netzwerk-universitaetsmedizin.de/fhir/StructureDefinition/sars-cov-2-rt-pcr" ]
      },
      "identifier": [ {
        "type": {
          "coding": [ {
            "system": "http://terminology.hl7.org/CodeSystem/v2-0203",
            "code": "OBI",
            "display": "Observation Instance Identifier"
          } ]
        },
        "system": "https://mein.krankenhaus.de/fhir/NamingSystem/observationId",
        "value": "a21b520f2af39380a28cc7a7deecd7f5cec64c4c6f5997f5465bf3655a2bb152",
        "assigner": {
          "reference": "Organization/3a4f3433bce81181bad2d8e0b8fafccf7dc800bc06f29be73dcb38b750a48f9a"
        }
      } ],
      "status": "final",
      "category": [ {
        "coding": [ {
          "system": "http://terminology.hl7.org/CodeSystem/observation-category",
          "code": "laboratory",
          "display": "Laboratory"
        }, {
          "system": "http://loinc.org",
          "code": "26436-6"
        } ]
      } ],
      "code": {
        "coding": [ {
          "system": "http://loinc.org",
          "code": "94500-6",
          "display": "sars-cov-2-covid-19-rna-in-respiratory-specimen-by-naa-with-probe-detection"
        } ],
        "text": "SARS-CoV-2-RNA (PCR)"
      },
      "subject": {
        "reference": "Patient/21e0d5b45804d2f5674bb1e505832d4facd6199e84a95c681fc99aaee46d33e9"
      },
      "encounter": {
        "reference": "Encounter/3795d720b91ec62c7e68716234034042ecb39df09e6f80bb13e2e4dd320ee705"
      },
      "effectiveDateTime": "2020-02-05T09:46:00+00:00",
      "valueCodeableConcept": {
        "coding": [ {
          "system": "http://snomed.info/sct",
          "code": "419984006",
          "display": "Inconclusive (qualifier value)"
        } ],
        "text": "SARS-CoV-2-RNA nicht eindeutig"
      }
    },
    "request": {
      "method": "POST",
      "url": "Observation",
      "ifNoneExist": "identifier=https://mein.krankenhaus.de/fhir/NamingSystem/observationId|82a1060b066240b0e872e91d9acfe69c2574ca7a06cb78663fb1218f5ec2859f"
    }
  }, {
    "fullUrl": "Observation/cf59b1ee99c10196836a939c29a4ab7a5981c45541ae62555b5b321d283c686c",
    "resource": {
      "resourceType": "Observation",
      "meta": {
        "profile": [ "https://www.netzwerk-universitaetsmedizin.de/fhir/StructureDefinition/sars-cov-2-ab-pnl-ser-pl-ia" ]
      },
      "identifier": [ {
        "type": {
          "coding": [ {
            "system": "http://terminology.hl7.org/CodeSystem/v2-0203",
            "code": "OBI",
            "display": "Observation Instance Identifier"
          } ]
        },
        "system": "https://mein.krankenhaus.de/fhir/NamingSystem/observationId",
        "value": "23b965faba719fe2f669a815e1e24cdfb9a8296f215a4ce1ac13f9b3acaf0d47",
        "assigner": {
          "reference": "Organization/3a4f3433bce81181bad2d8e0b8fafccf7dc800bc06f29be73dcb38b750a48f9a"
        }
      } ],
      "status": "final",
      "category": [ {
        "coding": [ {
          "system": "http://terminology.hl7.org/CodeSystem/observation-category",
          "code": "laboratory",
          "display": "Laboratory"
        }, {
          "system": "http://loinc.org",
          "code": "26436-6"
        } ]
      } ],
      "code": {
        "coding": [ {
          "system": "http://loinc.org",
          "code": "94504-8"
        } ],
        "text": "sarsco_v2_covid19_ab_pnl"
      },
      "subject": {
        "reference": "Patient/21e0d5b45804d2f5674bb1e505832d4facd6199e84a95c681fc99aaee46d33e9"
      },
      "encounter": {
        "reference": "Encounter/3795d720b91ec62c7e68716234034042ecb39df09e6f80bb13e2e4dd320ee705"
      },
      "effectiveDateTime": "2020-02-05T09:46:00+00:00",
      "hasMember": [ {
        "reference": "Observation/9443ad0c5b497be9e8fa533912ef8f64fd6a73097acb0e85ad958123817c41fc"
      }, {
        "reference": "Observation/1cf7cc566b0546ed7fbe88d8437e689e01a731cea4c59d09e22482cc77114be6"
      }, {
        "reference": "Observation/26e3f9f8c669b2342bf91fe7b8801e9e247e1e05dbceaf6a93e375fc32ce1e5b"
      }, {
        "reference": "Observation/4d08dce338d57dab0d50c69d45392f171194a57bd21140ab7cb9ef2fea7db643"
      }, {
        "reference": "Observation/4cd80b50ba954a1c3f691d133b7fb26ad49a0f87c9e3bccd3201d38445fdc20a"
      }, {
        "reference": "Observation/bd989f2cbd80bf578fac558ea06e15b8b45d7935888c2dc6a6e3ff9643c5b48e"
      }, {
        "reference": "Observation/b3f89c06c79cb67ec585eba5b909bdf0e1d09eb72cfab8818dc13eea75bcac6e"
      } ]
    },
    "request": {
      "method": "POST",
      "url": "Observation",
      "ifNoneExist": "identifier=https://mein.krankenhaus.de/fhir/NamingSystem/observationId|cf59b1ee99c10196836a939c29a4ab7a5981c45541ae62555b5b321d283c686c"
    }
  }, {
    "fullUrl": "Observation/9443ad0c5b497be9e8fa533912ef8f64fd6a73097acb0e85ad958123817c41fc",
    "resource": {
      "resourceType": "Observation",
      "meta": {
        "profile": [ "https://www.netzwerk-universitaetsmedizin.de/fhir/StructureDefinition/sars-cov-2-ab-ser-pl-ql-ia" ]
      },
      "identifier": [ {
        "type": {
          "coding": [ {
            "system": "http://terminology.hl7.org/CodeSystem/v2-0203",
            "code": "OBI",
            "display": "Observation Instance Identifier"
          } ]
        },
        "system": "https://mein.krankenhaus.de/fhir/NamingSystem/observationId",
        "value": "c30ded4a77f32824894a308b4ad328909bceff79d463a6a6b41058ad7f06413c",
        "assigner": {
          "reference": "Organization/3a4f3433bce81181bad2d8e0b8fafccf7dc800bc06f29be73dcb38b750a48f9a"
        }
      } ],
      "status": "final",
      "category": [ {
        "coding": [ {
          "system": "http://terminology.hl7.org/CodeSystem/observation-category",
          "code": "laboratory",
          "display": "Laboratory"
        }, {
          "system": "http://loinc.org",
          "code": "26436-6"
        } ]
      } ],
      "code": {
        "coding": [ {
          "system": "http://loinc.org",
          "code": "94762-2",
          "display": "sars-cov-2-covid-19-ab-in-serum-or-plasma-by-immunoassay"
        } ],
        "text": "sarsco_v2_covid19_ab_ia_ql"
      },
      "subject": {
        "reference": "Patient/21e0d5b45804d2f5674bb1e505832d4facd6199e84a95c681fc99aaee46d33e9"
      },
      "encounter": {
        "reference": "Encounter/3795d720b91ec62c7e68716234034042ecb39df09e6f80bb13e2e4dd320ee705"
      },
      "effectiveDateTime": "2020-02-05T09:46:00+00:00",
      "valueCodeableConcept": {
        "coding": [ {
          "system": "http://snomed.info/sct",
          "code": "260415000"
        } ]
      }
    },
    "request": {
      "method": "POST",
      "url": "Observation",
      "ifNoneExist": "identifier=https://mein.krankenhaus.de/fhir/NamingSystem/observationId|9443ad0c5b497be9e8fa533912ef8f64fd6a73097acb0e85ad958123817c41fc"
    }
  }, {
    "fullUrl": "Observation/1cf7cc566b0546ed7fbe88d8437e689e01a731cea4c59d09e22482cc77114be6",
    "resource": {
      "resourceType": "Observation",
      "meta": {
        "profile": [ "https://www.netzwerk-universitaetsmedizin.de/fhir/StructureDefinition/sars-cov-2-ab-ser-pl-ia-acnc" ]
      },
      "identifier": [ {
        "type": {
          "coding": [ {
            "system": "http://terminology.hl7.org/CodeSystem/v2-0203",
            "code": "OBI",
            "display": "Observation Instance Identifier"
          } ]
        },
        "system": "https://mein.krankenhaus.de/fhir/NamingSystem/observationId",
        "value": "be491064a6e9a0105e36c6de9d03060e39081facc27bdad8d6220f9529bf9c99",
        "assigner": {
          "reference": "Organization/3a4f3433bce81181bad2d8e0b8fafccf7dc800bc06f29be73dcb38b750a48f9a"
        }
      } ],
      "status": "final",
      "category": [ {
        "coding": [ {
          "system": "http://terminology.hl7.org/CodeSystem/observation-category",
          "code": "laboratory",
          "display": "Laboratory"
        }, {
          "system": "http://loinc.org",
          "code": "26436-6"
        } ]
      } ],
      "code": {
        "coding": [ {
          "system": "http://loinc.org",
          "code": "94769-7",
          "display": "sars-cov-2-covid-19-ab-in-serum-or-plasma-by-immunoassay"
        } ],
        "text": "sarsco_v2_covid19_ab_ia_qn"
      },
      "subject": {
        "reference": "Patient/21e0d5b45804d2f5674bb1e505832d4facd6199e84a95c681fc99aaee46d33e9"
      },
      "encounter": {
        "reference": "Encounter/3795d720b91ec62c7e68716234034042ecb39df09e6f80bb13e2e4dd320ee705"
      },
      "effectiveDateTime": "2020-02-05T09:46:00+00:00",
      "valueQuantity": {
        "value": 98.00294786554542,
        "unit": "[IU]/mL",
        "system": "http://unitsofmeasure.org",
        "code": "[IU]/mL"
      }
    },
    "request": {
      "method": "POST",
      "url": "Observation",
      "ifNoneExist": "identifier=https://mein.krankenhaus.de/fhir/NamingSystem/observationId|1cf7cc566b0546ed7fbe88d8437e689e01a731cea4c59d09e22482cc77114be6"
    }
  }, {
    "fullUrl": "Observation/26e3f9f8c669b2342bf91fe7b8801e9e247e1e05dbceaf6a93e375fc32ce1e5b",
    "resource": {
      "resourceType": "Observation",
      "meta": {
        "profile": [ "https://www.netzwerk-universitaetsmedizin.de/fhir/StructureDefinition/sars-cov-2-iga-ser-pl-ql-ia" ]
      },
      "identifier": [ {
        "type": {
          "coding": [ {
            "system": "http://terminology.hl7.org/CodeSystem/v2-0203",
            "code": "OBI",
            "display": "Observation Instance Identifier"
          } ]
        },
        "system": "https://mein.krankenhaus.de/fhir/NamingSystem/observationId",
        "value": "14a7ccd4a36217034d7fe76b04a607dc112d749767f0e3d9dd92bbe0d64649a6",
        "assigner": {
          "reference": "Organization/3a4f3433bce81181bad2d8e0b8fafccf7dc800bc06f29be73dcb38b750a48f9a"
        }
      } ],
      "status": "final",
      "category": [ {
        "coding": [ {
          "system": "http://terminology.hl7.org/CodeSystem/observation-category",
          "code": "laboratory",
          "display": "Laboratory"
        }, {
          "system": "http://loinc.org",
          "code": "26436-6"
        } ]
      } ],
      "code": {
        "coding": [ {
          "system": "http://loinc.org",
          "code": "94562-6",
          "display": "sars-cov-2-covid-19-iga-ab-in-serum-or-plasma-by-immunoassay"
        } ],
        "text": "sarsco_v2_covid19_ig_a_ia_ql"
      },
      "subject": {
        "reference": "Patient/21e0d5b45804d2f5674bb1e505832d4facd6199e84a95c681fc99aaee46d33e9"
      },
      "encounter": {
        "reference": "Encounter/3795d720b91ec62c7e68716234034042ecb39df09e6f80bb13e2e4dd320ee705"
      },
      "effectiveDateTime": "2020-02-05T09:46:00+00:00",
      "valueCodeableConcept": {
        "coding": [ {
          "system": "http://snomed.info/sct",
          "code": "419984006"
        } ]
      }
    },
    "request": {
      "method": "POST",
      "url": "Observation",
      "ifNoneExist": "identifier=https://mein.krankenhaus.de/fhir/NamingSystem/observationId|26e3f9f8c669b2342bf91fe7b8801e9e247e1e05dbceaf6a93e375fc32ce1e5b"
    }
  }, {
    "fullUrl": "Observation/4d08dce338d57dab0d50c69d45392f171194a57bd21140ab7cb9ef2fea7db643",
    "resource": {
      "resourceType": "Observation",
      "meta": {
        "profile": [ "https://www.netzwerk-universitaetsmedizin.de/fhir/StructureDefinition/sars-cov-2-igg-ser-pl-ql-ia" ]
      },
      "identifier": [ {
        "type": {
          "coding": [ {
            "system": "http://terminology.hl7.org/CodeSystem/v2-0203",
            "code": "OBI",
            "display": "Observation Instance Identifier"
          } ]
        },
        "system": "https://mein.krankenhaus.de/fhir/NamingSystem/observationId",
        "value": "3ff6606add6d7a2b381a92579d48804c921c6d506d2304d93bdcdf83edc7e95c",
        "assigner": {
          "reference": "Organization/3a4f3433bce81181bad2d8e0b8fafccf7dc800bc06f29be73dcb38b750a48f9a"
        }
      } ],
      "status": "final",
      "category": [ {
        "coding": [ {
          "system": "http://terminology.hl7.org/CodeSystem/observation-category",
          "code": "laboratory",
          "display": "Laboratory"
        }, {
          "system": "http://loinc.org",
          "code": "26436-6"
        } ]
      } ],
      "code": {
        "coding": [ {
          "system": "http://loinc.org",
          "code": "94563-4",
          "display": "sars-cov-2-covid-19-igg-ab-in-serum-or-plasma-by-immunoassay"
        } ],
        "text": "sarsco_v2_covid19_ig_g_ia_ql"
      },
      "subject": {
        "reference": "Patient/21e0d5b45804d2f5674bb1e505832d4facd6199e84a95c681fc99aaee46d33e9"
      },
      "encounter": {
        "reference": "Encounter/3795d720b91ec62c7e68716234034042ecb39df09e6f80bb13e2e4dd320ee705"
      },
      "effectiveDateTime": "2020-02-05T09:46:00+00:00",
      "valueCodeableConcept": {
        "coding": [ {
          "system": "http://snomed.info/sct",
          "code": "419984006"
        } ]
      }
    },
    "request": {
      "method": "POST",
      "url": "Observation",
      "ifNoneExist": "identifier=https://mein.krankenhaus.de/fhir/NamingSystem/observationId|4d08dce338d57dab0d50c69d45392f171194a57bd21140ab7cb9ef2fea7db643"
    }
  }, {
    "fullUrl": "Observation/4cd80b50ba954a1c3f691d133b7fb26ad49a0f87c9e3bccd3201d38445fdc20a",
    "resource": {
      "resourceType": "Observation",
      "meta": {
        "profile": [ "https://www.netzwerk-universitaetsmedizin.de/fhir/StructureDefinition/sars-cov-2-igg-ser-pl-ia-acnc" ]
      },
      "identifier": [ {
        "type": {
          "coding": [ {
            "system": "http://terminology.hl7.org/CodeSystem/v2-0203",
            "code": "OBI",
            "display": "Observation Instance Identifier"
          } ]
        },
        "system": "https://mein.krankenhaus.de/fhir/NamingSystem/observationId",
        "value": "baf50a94879e87a8fa8b9a48cb98460ca3d1877764fc08c0fc83201df9801a03",
        "assigner": {
          "reference": "Organization/3a4f3433bce81181bad2d8e0b8fafccf7dc800bc06f29be73dcb38b750a48f9a"
        }
      } ],
      "status": "final",
      "category": [ {
        "coding": [ {
          "system": "http://terminology.hl7.org/CodeSystem/observation-category",
          "code": "laboratory",
          "display": "Laboratory"
        }, {
          "system": "http://loinc.org",
          "code": "26436-6"
        } ]
      } ],
      "code": {
        "coding": [ {
          "system": "http://loinc.org",
          "code": "94505-5",
          "display": "sars-cov-2-covid-19-igg-ab-in-serum-or-plasma-by-immunoassay"
        } ],
        "text": "sarsco_v2_covid19_ig_g_ia_qn"
      },
      "subject": {
        "reference": "Patient/21e0d5b45804d2f5674bb1e505832d4facd6199e84a95c681fc99aaee46d33e9"
      },
      "encounter": {
        "reference": "Encounter/3795d720b91ec62c7e68716234034042ecb39df09e6f80bb13e2e4dd320ee705"
      },
      "effectiveDateTime": "2020-02-05T09:46:00+00:00",
      "valueQuantity": {
        "value": 12.688323331158024,
        "unit": "[arb'U]/mL",
        "system": "http://unitsofmeasure.org",
        "code": "[arb'U]/mL"
      }
    },
    "request": {
      "method": "POST",
      "url": "Observation",
      "ifNoneExist": "identifier=https://mein.krankenhaus.de/fhir/NamingSystem/observationId|4cd80b50ba954a1c3f691d133b7fb26ad49a0f87c9e3bccd3201d38445fdc20a"
    }
  }, {
    "fullUrl": "Observation/bd989f2cbd80bf578fac558ea06e15b8b45d7935888c2dc6a6e3ff9643c5b48e",
    "resource": {
      "resourceType": "Observation",
      "meta": {
        "profile": [ "https://www.netzwerk-universitaetsmedizin.de/fhir/StructureDefinition/sars-cov-2-igm-ser-pl-ql-ia" ]
      },
      "identifier": [ {
        "type": {
          "coding": [ {
            "system": "http://terminology.hl7.org/CodeSystem/v2-0203",
            "code": "OBI",
            "display": "Observation Instance Identifier"
          } ]
        },
        "system": "https://mein.krankenhaus.de/fhir/NamingSystem/observationId",
        "value": "07e656b6a2439b8bc3761ad99cd475975579a94ba145173b69d545cc7d9cea3a",
        "assigner": {
          "reference": "Organization/3a4f3433bce81181bad2d8e0b8fafccf7dc800bc06f29be73dcb38b750a48f9a"
        }
      } ],
      "status": "final",
      "category": [ {
        "coding": [ {
          "system": "http://terminology.hl7.org/CodeSystem/observation-category",
          "code": "laboratory",
          "display": "Laboratory"
        }, {
          "system": "http://loinc.org",
          "code": "26436-6"
        } ]
      } ],
      "code": {
        "coding": [ {
          "system": "http://loinc.org",
          "code": "94564-2",
          "display": "sars-cov-2-covid-19-igm-ab-in-serum-or-plasma-by-immunoassay"
        } ],
        "text": "sarsco_v2_covid19_ig_m_ia_ql"
      },
      "subject": {
        "reference": "Patient/21e0d5b45804d2f5674bb1e505832d4facd6199e84a95c681fc99aaee46d33e9"
      },
      "encounter": {
        "reference": "Encounter/3795d720b91ec62c7e68716234034042ecb39df09e6f80bb13e2e4dd320ee705"
      },
      "effectiveDateTime": "2020-02-05T09:46:00+00:00",
      "valueCodeableConcept": {
        "coding": [ {
          "system": "http://snomed.info/sct",
          "code": "419984006"
        } ]
      }
    },
    "request": {
      "method": "POST",
      "url": "Observation",
      "ifNoneExist": "identifier=https://mein.krankenhaus.de/fhir/NamingSystem/observationId|bd989f2cbd80bf578fac558ea06e15b8b45d7935888c2dc6a6e3ff9643c5b48e"
    }
  }, {
    "fullUrl": "Observation/b3f89c06c79cb67ec585eba5b909bdf0e1d09eb72cfab8818dc13eea75bcac6e",
    "resource": {
      "resourceType": "Observation",
      "meta": {
        "profile": [ "https://www.netzwerk-universitaetsmedizin.de/fhir/StructureDefinition/sars-cov-2-igm-ser-pl-ia-acnc" ]
      },
      "identifier": [ {
        "type": {
          "coding": [ {
            "system": "http://terminology.hl7.org/CodeSystem/v2-0203",
            "code": "OBI",
            "display": "Observation Instance Identifier"
          } ]
        },
        "system": "https://mein.krankenhaus.de/fhir/NamingSystem/observationId",
        "value": "bd9f9a20d4fffbb8714a8e754c6aee398e14198a8385d81dfae4834bf8970819",
        "assigner": {
          "reference": "Organization/3a4f3433bce81181bad2d8e0b8fafccf7dc800bc06f29be73dcb38b750a48f9a"
        }
      } ],
      "status": "final",
      "category": [ {
        "coding": [ {
          "system": "http://terminology.hl7.org/CodeSystem/observation-category",
          "code": "laboratory",
          "display": "Laboratory"
        }, {
          "system": "http://loinc.org",
          "code": "26436-6"
        } ]
      } ],
      "code": {
        "coding": [ {
          "system": "http://loinc.org",
          "code": "94506-3",
          "display": "sars-cov-2-covid-19-igm-ab-in-serum-or-plasma-by-immunoassay"
        } ],
        "text": "sarsco_v2_covid19_ig_m_ia_qn"
      },
      "subject": {
        "reference": "Patient/21e0d5b45804d2f5674bb1e505832d4facd6199e84a95c681fc99aaee46d33e9"
      },
      "encounter": {
        "reference": "Encounter/3795d720b91ec62c7e68716234034042ecb39df09e6f80bb13e2e4dd320ee705"
      },
      "effectiveDateTime": "2020-02-05T09:46:00+00:00",
      "valueQuantity": {
        "value": 19.49860534042268,
        "unit": "[arb'U]/mL",
        "system": "http://unitsofmeasure.org",
        "code": "[arb'U]/mL"
      }
    },
    "request": {
      "method": "POST",
      "url": "Observation",
      "ifNoneExist": "identifier=https://mein.krankenhaus.de/fhir/NamingSystem/observationId|b3f89c06c79cb67ec585eba5b909bdf0e1d09eb72cfab8818dc13eea75bcac6e"
    }
  }, {
    "fullUrl": "Observation/387b3f56cfb9b3839cd2ba5654aadbac8383872bd28f44833bec4a9cd180bf4c",
    "resource": {
      "resourceType": "Observation",
      "meta": {
        "profile": [ "https://www.netzwerk-universitaetsmedizin.de/fhir/StructureDefinition/carbon-dioxide-partial-pressure" ]
      },
      "identifier": [ {
        "type": {
          "coding": [ {
            "system": "http://terminology.hl7.org/CodeSystem/v2-0203",
            "code": "OBI",
            "display": "Observation Instance Identifier"
          } ]
        },
        "system": "https://mein.krankenhaus.de/fhir/NamingSystem/observationId",
        "value": "2cfe0925db69e9c42ff813f034210f77310643fea9953928deef1e6e96f73a37",
        "assigner": {
          "reference": "Organization/3a4f3433bce81181bad2d8e0b8fafccf7dc800bc06f29be73dcb38b750a48f9a"
        }
      } ],
      "status": "final",
      "category": [ {
        "coding": [ {
          "system": "http://terminology.hl7.org/CodeSystem/observation-category",
          "code": "laboratory",
          "display": "Laboratory"
        }, {
          "system": "http://loinc.org",
          "code": "26436-6",
          "display": "Laboratory studies (set)"
        }, {
          "system": "http://loinc.org",
          "code": "18767-4",
          "display": "Blood gas studies (set)"
        } ]
      } ],
      "code": {
        "coding": [ {
          "system": "http://loinc.org",
          "code": "11557-6"
        } ],
        "text": "Carbon dioxide [Partial pressure] in blood"
      },
      "subject": {
        "reference": "Patient/21e0d5b45804d2f5674bb1e505832d4facd6199e84a95c681fc99aaee46d33e9"
      },
      "encounter": {
        "reference": "Encounter/3795d720b91ec62c7e68716234034042ecb39df09e6f80bb13e2e4dd320ee705"
      },
      "effectiveDateTime": "2020-05-12T13:52:00+00:00",
      "valueQuantity": {
        "value": 165,
        "unit": "mmHg",
        "system": "http://unitsofmeasure.org",
        "code": "mm[Hg]"
      }
    },
    "request": {
      "method": "POST",
      "url": "Observation",
      "ifNoneExist": "identifier=https://mein.krankenhaus.de/fhir/NamingSystem/observationId|387b3f56cfb9b3839cd2ba5654aadbac8383872bd28f44833bec4a9cd180bf4c"
    }
  }, {
    "fullUrl": "Observation/1e3b250ff3f3badbcfca18d82730785d898cf3026845c96db15135be11eb721b",
    "resource": {
      "resourceType": "Observation",
      "meta": {
        "profile": [ "https://www.netzwerk-universitaetsmedizin.de/fhir/StructureDefinition/oxygen-partial-pressure" ]
      },
      "identifier": [ {
        "type": {
          "coding": [ {
            "system": "http://terminology.hl7.org/CodeSystem/v2-0203",
            "code": "OBI",
            "display": "Observation Instance Identifier"
          } ]
        },
        "system": "https://mein.krankenhaus.de/fhir/NamingSystem/observationId",
        "value": "80c7e9249adfc64387a4e72beaf17a69e03f74999b908d1ecd48bc8a4d150671",
        "assigner": {
          "reference": "Organization/3a4f3433bce81181bad2d8e0b8fafccf7dc800bc06f29be73dcb38b750a48f9a"
        }
      } ],
      "status": "final",
      "category": [ {
        "coding": [ {
          "system": "http://terminology.hl7.org/CodeSystem/observation-category",
          "code": "laboratory",
          "display": "Laboratory"
        }, {
          "system": "http://loinc.org",
          "code": "26436-6",
          "display": "Laboratory studies (set)"
        }, {
          "system": "http://loinc.org",
          "code": "18767-4",
          "display": "Blood gas studies (set)"
        } ]
      } ],
      "code": {
        "coding": [ {
          "system": "http://loinc.org",
          "code": "11557-8"
        } ],
        "text": "Oxygen [Partial pressure] in blood"
      },
      "subject": {
        "reference": "Patient/21e0d5b45804d2f5674bb1e505832d4facd6199e84a95c681fc99aaee46d33e9"
      },
      "encounter": {
        "reference": "Encounter/3795d720b91ec62c7e68716234034042ecb39df09e6f80bb13e2e4dd320ee705"
      },
      "effectiveDateTime": "2020-05-12T13:52:00+00:00",
      "valueQuantity": {
        "value": 127,
        "unit": "mmHg",
        "system": "http://unitsofmeasure.org",
        "code": "mm[Hg]"
      }
    },
    "request": {
      "method": "POST",
      "url": "Observation",
      "ifNoneExist": "identifier=https://mein.krankenhaus.de/fhir/NamingSystem/observationId|1e3b250ff3f3badbcfca18d82730785d898cf3026845c96db15135be11eb721b"
    }
  }, {
    "fullUrl": "Observation/2d1be9e409d435d321c0fe37654e5c9db995307b6eff1539fd28b82b094af714",
    "resource": {
      "resourceType": "Observation",
      "meta": {
        "profile": [ "https://www.netzwerk-universitaetsmedizin.de/fhir/StructureDefinition/inhaled-oxygen-concentration" ]
      },
      "identifier": [ {
        "type": {
          "coding": [ {
            "system": "http://terminology.hl7.org/CodeSystem/v2-0203",
            "code": "OBI",
            "display": "Observation Instance Identifier"
          } ]
        },
        "system": "https://mein.krankenhaus.de/fhir/NamingSystem/observationId",
        "value": "956c118e9f987f6e7335af6c10d4aee2e537f00b3f1e19ec3bb925065e56a57c",
        "assigner": {
          "reference": "Organization/3a4f3433bce81181bad2d8e0b8fafccf7dc800bc06f29be73dcb38b750a48f9a"
        }
      } ],
      "status": "final",
      "category": [ {
        "coding": [ {
          "system": "http://terminology.hl7.org/CodeSystem/observation-category",
          "code": "laboratory",
          "display": "Laboratory"
        }, {
          "system": "http://loinc.org",
          "code": "26436-6",
          "display": "Laboratory studies (set)"
        }, {
          "system": "http://loinc.org",
          "code": "18767-4",
          "display": "Blood gas studies (set)"
        } ]
      } ],
      "code": {
        "coding": [ {
          "system": "http://loinc.org",
          "code": "3150-0"
        }, {
          "system": "http://snomed.info/sct",
          "code": "250774007"
        } ],
        "text": "Oxygen [Partial pressure] in blood"
      },
      "subject": {
        "reference": "Patient/21e0d5b45804d2f5674bb1e505832d4facd6199e84a95c681fc99aaee46d33e9"
      },
      "encounter": {
        "reference": "Encounter/3795d720b91ec62c7e68716234034042ecb39df09e6f80bb13e2e4dd320ee705"
      },
      "effectiveDateTime": "2020-05-12T13:52:00+00:00",
      "valueQuantity": {
        "value": 8.385945572092258,
        "unit": "%",
        "system": "http://unitsofmeasure.org",
        "code": "%"
      }
    },
    "request": {
      "method": "POST",
      "url": "Observation",
      "ifNoneExist": "identifier=https://mein.krankenhaus.de/fhir/NamingSystem/observationId|2d1be9e409d435d321c0fe37654e5c9db995307b6eff1539fd28b82b094af714"
    }
  }, {
    "fullUrl": "Observation/8a548d02b26d52c2d36595d8d4905c10aaf6fe2bfae829ee40b9ac6a5b3e792f",
    "resource": {
      "resourceType": "Observation",
      "meta": {
        "profile": [ "https://www.netzwerk-universitaetsmedizin.de/fhir/StructureDefinition/pH" ]
      },
      "identifier": [ {
        "type": {
          "coding": [ {
            "system": "http://terminology.hl7.org/CodeSystem/v2-0203",
            "code": "OBI",
            "display": "Observation Instance Identifier"
          } ]
        },
        "system": "https://mein.krankenhaus.de/fhir/NamingSystem/observationId",
        "value": "6c0284b29c17a6ed3659a4aaf37cf2993c7104b96f2da55beeea111f14f88daf",
        "assigner": {
          "reference": "Organization/3a4f3433bce81181bad2d8e0b8fafccf7dc800bc06f29be73dcb38b750a48f9a"
        }
      } ],
      "status": "final",
      "category": [ {
        "coding": [ {
          "system": "http://terminology.hl7.org/CodeSystem/observation-category",
          "code": "laboratory",
          "display": "Laboratory"
        }, {
          "system": "http://loinc.org",
          "code": "26436-6",
          "display": "Laboratory studies (set)"
        }, {
          "system": "http://loinc.org",
          "code": "18767-4",
          "display": "Blood gas studies (set)"
        } ]
      } ],
      "code": {
        "coding": [ {
          "system": "http://loinc.org",
          "code": "11558-4"
        } ],
        "text": "pH of Blood"
      },
      "subject": {
        "reference": "Patient/21e0d5b45804d2f5674bb1e505832d4facd6199e84a95c681fc99aaee46d33e9"
      },
      "encounter": {
        "reference": "Encounter/3795d720b91ec62c7e68716234034042ecb39df09e6f80bb13e2e4dd320ee705"
      },
      "effectiveDateTime": "2020-05-12T13:52:00+00:00",
      "valueQuantity": {
        "value": 6.00629873350002,
        "unit": "pH",
        "system": "http://unitsofmeasure.org",
        "code": "[pH]"
      }
    },
    "request": {
      "method": "POST",
      "url": "Observation",
      "ifNoneExist": "identifier=https://mein.krankenhaus.de/fhir/NamingSystem/observationId|8a548d02b26d52c2d36595d8d4905c10aaf6fe2bfae829ee40b9ac6a5b3e792f"
    }
  }, {
    "fullUrl": "Observation/b7e040ea037992b41066448cd858ebee6968775c03181584b55fdffa9180c170",
    "resource": {
      "resourceType": "Observation",
      "meta": {
        "profile": [ "https://www.netzwerk-universitaetsmedizin.de/fhir/StructureDefinition/sofa-score" ]
      },
      "identifier": [ {
        "type": {
          "coding": [ {
            "system": "http://terminology.hl7.org/CodeSystem/v2-0203",
            "code": "OBI",
            "display": "Observation Instance Identifier"
          } ]
        },
        "system": "https://mein.krankenhaus.de/fhir/NamingSystem/observationId",
        "value": "71551318bf86c1be2f8e359046a86fa3627ef8c086ab7b7556168be07e1e6155",
        "assigner": {
          "reference": "Organization/3a4f3433bce81181bad2d8e0b8fafccf7dc800bc06f29be73dcb38b750a48f9a"
        }
      } ],
      "status": "final",
      "category": [ {
        "coding": [ {
          "system": "http://terminology.hl7.org/CodeSystem/observation-category",
          "code": "survey",
          "display": "Survey"
        } ]
      } ],
      "code": {
        "coding": [ {
          "system": "https://www.netzwerk-universitaetsmedizin.de/fhir/CodeSystem/ecrf-parameter-codes",
          "code": "06",
          "display": "SOFA-Score"
        } ],
        "text": "Sepsis-related organ failure assessment score"
      },
      "subject": {
        "reference": "Patient/21e0d5b45804d2f5674bb1e505832d4facd6199e84a95c681fc99aaee46d33e9"
      },
      "encounter": {
        "reference": "Encounter/3795d720b91ec62c7e68716234034042ecb39df09e6f80bb13e2e4dd320ee705"
      },
      "effectiveDateTime": "2020-05-12T13:52:00+00:00",
      "valueInteger": 8,
      "component": [ {
        "code": {
          "coding": [ {
            "system": "https://www.netzwerk-universitaetsmedizin.de/fhir/CodeSystem/sofa-score",
            "code": "kid",
            "display": "Kidneys"
          } ],
          "text": "SOFA Kidneys scoring category"
        },
        "valueCodeableConcept": {
          "coding": [ {
            "system": "https://www.netzwerk-universitaetsmedizin.de/fhir/CodeSystem/sofa-score",
            "code": "kid4",
            "display": "Kidneys SOFA score 4"
          } ],
          "text": "Creatinine (mg/dl) [umol/L] (or urine output) > 5.0 [> 440] (or < 200 ml/d)"
        }
      }, {
        "code": {
          "coding": [ {
            "system": "https://www.netzwerk-universitaetsmedizin.de/fhir/CodeSystem/sofa-score",
            "code": "liv",
            "display": "Liver"
          } ],
          "text": "SOFA Liver scoring category"
        },
        "valueCodeableConcept": {
          "coding": [ {
            "system": "https://www.netzwerk-universitaetsmedizin.de/fhir/CodeSystem/sofa-score",
            "code": "liv4",
            "display": "Liver SOFA score 4"
          } ],
          "text": "Bilirubin (mg/dl) [umol/L] > 12.0 [> 204]"
        }
      }, {
        "code": {
          "coding": [ {
            "system": "https://www.netzwerk-universitaetsmedizin.de/fhir/CodeSystem/sofa-score",
            "code": "coa",
            "display": "Coagulation"
          } ],
          "text": "SOFA Coagulation scoring category"
        },
        "valueCodeableConcept": {
          "coding": [ {
            "system": "https://www.netzwerk-universitaetsmedizin.de/fhir/CodeSystem/sofa-score",
            "code": "coa0",
            "display": "Coagulation SOFA score 0"
          } ],
          "text": "Platelets10^3/ul ? 150"
        }
      } ]
    },
    "request": {
      "method": "POST",
      "url": "Observation",
      "ifNoneExist": "identifier=https://mein.krankenhaus.de/fhir/NamingSystem/observationId|b7e040ea037992b41066448cd858ebee6968775c03181584b55fdffa9180c170"
    }
  }, {
    "fullUrl": "Observation/bcc0840ed9398cb64bb6c638df95a4a5b209126034a18849c9b65aacf3ee5f78",
    "resource": {
      "resourceType": "Observation",
      "meta": {
        "profile": [ "https://www.netzwerk-universitaetsmedizin.de/fhir/StructureDefinition/respiratory-rate" ]
      },
      "identifier": [ {
        "type": {
          "coding": [ {
            "system": "http://terminology.hl7.org/CodeSystem/v2-0203",
            "code": "OBI",
            "display": "Observation Instance Identifier"
          } ]
        },
        "system": "https://mein.krankenhaus.de/fhir/NamingSystem/observationId",
        "value": "5e0975a0736e815f5dda3c874d5a36f93acb9d2594e0f6711fb1e2096ebbd264",
        "assigner": {
          "reference": "Organization/3a4f3433bce81181bad2d8e0b8fafccf7dc800bc06f29be73dcb38b750a48f9a"
        }
      } ],
      "status": "final",
      "category": [ {
        "coding": [ {
          "system": "http://terminology.hl7.org/CodeSystem/observation-category",
          "code": "vital-signs",
          "display": "Vital Signs"
        } ]
      } ],
      "code": {
        "coding": [ {
          "system": "http://loinc.org",
          "code": "9279-1"
        }, {
          "system": "http://snomed.info/sct",
          "code": "86290005"
        } ],
        "text": "Respiratory rate"
      },
      "subject": {
        "reference": "Patient/21e0d5b45804d2f5674bb1e505832d4facd6199e84a95c681fc99aaee46d33e9"
      },
      "encounter": {
        "reference": "Encounter/3795d720b91ec62c7e68716234034042ecb39df09e6f80bb13e2e4dd320ee705"
      },
      "effectiveDateTime": "2020-05-12T13:52:00+00:00",
      "valueQuantity": {
        "value": 92,
        "unit": "per minute",
        "system": "http://unitsofmeasure.org",
        "code": "/min"
      }
    },
    "request": {
      "method": "POST",
      "url": "Observation",
      "ifNoneExist": "identifier=https://mein.krankenhaus.de/fhir/NamingSystem/observationId|bcc0840ed9398cb64bb6c638df95a4a5b209126034a18849c9b65aacf3ee5f78"
    }
  }, {
    "fullUrl": "Observation/118d1587d7f30ec06a2055a6e3b1b17540a769400952ba4e3465fe308b3bfbff",
    "resource": {
      "resourceType": "Observation",
      "meta": {
        "profile": [ "https://www.netzwerk-universitaetsmedizin.de/fhir/StructureDefinition/blood-pressure" ]
      },
      "identifier": [ {
        "type": {
          "coding": [ {
            "system": "http://terminology.hl7.org/CodeSystem/v2-0203",
            "code": "OBI",
            "display": "Observation Instance Identifier"
          } ]
        },
        "system": "https://mein.krankenhaus.de/fhir/NamingSystem/observationId",
        "value": "cc6103a5991579663183890eb6ba42a995299f8e101300609bf59192a7cdcca1",
        "assigner": {
          "reference": "Organization/3a4f3433bce81181bad2d8e0b8fafccf7dc800bc06f29be73dcb38b750a48f9a"
        }
      } ],
      "status": "final",
      "category": [ {
        "coding": [ {
          "system": "http://terminology.hl7.org/CodeSystem/observation-category",
          "code": "vital-signs",
          "display": "Vital Signs"
        } ]
      } ],
      "code": {
        "coding": [ {
          "system": "http://loinc.org",
          "code": "85354-9",
          "display": "Blood pressure panel with all children optional"
        }, {
          "system": "http://snomed.info/sct",
          "code": "75367002",
          "display": "Blood pressure (observable entity)"
        } ],
        "text": "Blood pressure"
      },
      "subject": {
        "reference": "Patient/21e0d5b45804d2f5674bb1e505832d4facd6199e84a95c681fc99aaee46d33e9"
      },
      "encounter": {
        "reference": "Encounter/3795d720b91ec62c7e68716234034042ecb39df09e6f80bb13e2e4dd320ee705"
      },
      "effectiveDateTime": "2020-05-12T13:52:00+00:00",
      "component": [ {
        "code": {
          "coding": [ {
            "system": "http://loinc.org",
            "code": "8480-6"
          }, {
            "system": "http://snomed.info/sct",
            "code": "271649006"
          } ],
          "text": "Systolic blood pressure"
        },
        "valueQuantity": {
          "value": 139,
          "unit": "mmHg",
          "system": "http://unitsofmeasure.org",
          "code": "mm[Hg]"
        }
      }, {
        "code": {
          "coding": [ {
            "system": "http://loinc.org",
            "code": "8462-4"
          }, {
            "system": "http://snomed.info/sct",
            "code": "271650006"
          } ],
          "text": "Diastolic blood pressure"
        },
        "valueQuantity": {
          "value": 146,
          "unit": "mmHg",
          "system": "http://unitsofmeasure.org",
          "code": "mm[Hg]"
        }
      } ]
    },
    "request": {
      "method": "POST",
      "url": "Observation",
      "ifNoneExist": "identifier=https://mein.krankenhaus.de/fhir/NamingSystem/observationId|118d1587d7f30ec06a2055a6e3b1b17540a769400952ba4e3465fe308b3bfbff"
    }
  }, {
    "fullUrl": "Observation/090dd82391ffe1bbfff741b9659321c4550f43226fb4091c728801ba427868e3",
    "resource": {
      "resourceType": "Observation",
      "meta": {
        "profile": [ "https://www.netzwerk-universitaetsmedizin.de/fhir/StructureDefinition/heart-rate" ]
      },
      "identifier": [ {
        "type": {
          "coding": [ {
            "system": "http://terminology.hl7.org/CodeSystem/v2-0203",
            "code": "OBI",
            "display": "Observation Instance Identifier"
          } ]
        },
        "system": "https://mein.krankenhaus.de/fhir/NamingSystem/observationId",
        "value": "e3add28ea4859d2b2f75103ad1743d47c7a28b3aa073e27b1802dc26101a1096",
        "assigner": {
          "reference": "Organization/3a4f3433bce81181bad2d8e0b8fafccf7dc800bc06f29be73dcb38b750a48f9a"
        }
      } ],
      "status": "final",
      "category": [ {
        "coding": [ {
          "system": "http://terminology.hl7.org/CodeSystem/observation-category",
          "code": "vital-signs",
          "display": "Vital Signs"
        } ]
      } ],
      "code": {
        "coding": [ {
          "system": "http://loinc.org",
          "code": "8867-4"
        }, {
          "system": "http://snomed.info/sct",
          "code": "364075005"
        } ],
        "text": "Heart rate"
      },
      "subject": {
        "reference": "Patient/21e0d5b45804d2f5674bb1e505832d4facd6199e84a95c681fc99aaee46d33e9"
      },
      "encounter": {
        "reference": "Encounter/3795d720b91ec62c7e68716234034042ecb39df09e6f80bb13e2e4dd320ee705"
      },
      "effectiveDateTime": "2020-05-12T13:52:00+00:00",
      "valueQuantity": {
        "value": 97,
        "unit": "per minute",
        "system": "http://unitsofmeasure.org",
        "code": "/min"
      }
    },
    "request": {
      "method": "POST",
      "url": "Observation",
      "ifNoneExist": "identifier=https://mein.krankenhaus.de/fhir/NamingSystem/observationId|090dd82391ffe1bbfff741b9659321c4550f43226fb4091c728801ba427868e3"
    }
  }, {
    "fullUrl": "Observation/b8a0cfdb4fbb0d1ceb936203b9ca3ed272cd4c45e84af5f394781d24d2c64955",
    "resource": {
      "resourceType": "Observation",
      "meta": {
        "profile": [ "https://www.netzwerk-universitaetsmedizin.de/fhir/StructureDefinition/oxygen-saturation" ]
      },
      "identifier": [ {
        "type": {
          "coding": [ {
            "system": "http://terminology.hl7.org/CodeSystem/v2-0203",
            "code": "OBI",
            "display": "Observation Instance Identifier"
          } ]
        },
        "system": "https://mein.krankenhaus.de/fhir/NamingSystem/observationId",
        "value": "e6bc5270f11137b7c3f9889717bfef906e662e80267137ec9507579cc24125f5",
        "assigner": {
          "reference": "Organization/3a4f3433bce81181bad2d8e0b8fafccf7dc800bc06f29be73dcb38b750a48f9a"
        }
      } ],
      "status": "final",
      "category": [ {
        "coding": [ {
          "system": "http://terminology.hl7.org/CodeSystem/observation-category",
          "code": "vital-signs",
          "display": "Vital Signs"
        } ]
      } ],
      "code": {
        "coding": [ {
          "system": "http://loinc.org",
          "code": "2708-6"
        }, {
          "system": "http://loinc.org",
          "code": "59408-5"
        }, {
          "system": "http://loinc.org",
          "code": "20564-1"
        }, {
          "system": "http://snomed.info/sct",
          "code": "431314004"
        } ],
        "text": "Oxygen saturation in Arterial blood"
      },
      "subject": {
        "reference": "Patient/21e0d5b45804d2f5674bb1e505832d4facd6199e84a95c681fc99aaee46d33e9"
      },
      "encounter": {
        "reference": "Encounter/3795d720b91ec62c7e68716234034042ecb39df09e6f80bb13e2e4dd320ee705"
      },
      "effectiveDateTime": "2020-05-12T13:52:00+00:00",
      "valueQuantity": {
        "value": 76,
        "unit": "%",
        "system": "http://unitsofmeasure.org",
        "code": "%"
      }
    },
    "request": {
      "method": "POST",
      "url": "Observation",
      "ifNoneExist": "identifier=https://mein.krankenhaus.de/fhir/NamingSystem/observationId|b8a0cfdb4fbb0d1ceb936203b9ca3ed272cd4c45e84af5f394781d24d2c64955"
    }
  }, {
    "fullUrl": "Observation/4b825f20f34bbeedaceeff7d29cb6ae1529bbb17f8eeb598bab0cc15cf93a631",
    "resource": {
      "resourceType": "Observation",
      "meta": {
        "profile": [ "https://www.netzwerk-universitaetsmedizin.de/fhir/StructureDefinition/carbon-dioxide-partial-pressure" ]
      },
      "identifier": [ {
        "type": {
          "coding": [ {
            "system": "http://terminology.hl7.org/CodeSystem/v2-0203",
            "code": "OBI",
            "display": "Observation Instance Identifier"
          } ]
        },
        "system": "https://mein.krankenhaus.de/fhir/NamingSystem/observationId",
        "value": "59bbfa0623afe49ca2ed09fc7b70f43a430b69ac90e3fb82d64914e4297f79c0",
        "assigner": {
          "reference": "Organization/3a4f3433bce81181bad2d8e0b8fafccf7dc800bc06f29be73dcb38b750a48f9a"
        }
      } ],
      "status": "final",
      "category": [ {
        "coding": [ {
          "system": "http://terminology.hl7.org/CodeSystem/observation-category",
          "code": "laboratory",
          "display": "Laboratory"
        }, {
          "system": "http://loinc.org",
          "code": "26436-6",
          "display": "Laboratory studies (set)"
        }, {
          "system": "http://loinc.org",
          "code": "18767-4",
          "display": "Blood gas studies (set)"
        } ]
      } ],
      "code": {
        "coding": [ {
          "system": "http://loinc.org",
          "code": "11557-6"
        } ],
        "text": "Carbon dioxide [Partial pressure] in blood"
      },
      "subject": {
        "reference": "Patient/21e0d5b45804d2f5674bb1e505832d4facd6199e84a95c681fc99aaee46d33e9"
      },
      "encounter": {
        "reference": "Encounter/3795d720b91ec62c7e68716234034042ecb39df09e6f80bb13e2e4dd320ee705"
      },
      "effectiveDateTime": "2020-12-15T13:21:00+00:00",
      "valueQuantity": {
        "value": 62,
        "unit": "mmHg",
        "system": "http://unitsofmeasure.org",
        "code": "mm[Hg]"
      }
    },
    "request": {
      "method": "POST",
      "url": "Observation",
      "ifNoneExist": "identifier=https://mein.krankenhaus.de/fhir/NamingSystem/observationId|4b825f20f34bbeedaceeff7d29cb6ae1529bbb17f8eeb598bab0cc15cf93a631"
    }
  }, {
    "fullUrl": "Observation/c796f7671d51831c02aa8893b6555d9151a6034609b724de284c59e5e4d785f0",
    "resource": {
      "resourceType": "Observation",
      "meta": {
        "profile": [ "https://www.netzwerk-universitaetsmedizin.de/fhir/StructureDefinition/oxygen-partial-pressure" ]
      },
      "identifier": [ {
        "type": {
          "coding": [ {
            "system": "http://terminology.hl7.org/CodeSystem/v2-0203",
            "code": "OBI",
            "display": "Observation Instance Identifier"
          } ]
        },
        "system": "https://mein.krankenhaus.de/fhir/NamingSystem/observationId",
        "value": "84341e4889e44c72614233511463c445230e0ff63d32001af97ffb78e657136a",
        "assigner": {
          "reference": "Organization/3a4f3433bce81181bad2d8e0b8fafccf7dc800bc06f29be73dcb38b750a48f9a"
        }
      } ],
      "status": "final",
      "category": [ {
        "coding": [ {
          "system": "http://terminology.hl7.org/CodeSystem/observation-category",
          "code": "laboratory",
          "display": "Laboratory"
        }, {
          "system": "http://loinc.org",
          "code": "26436-6",
          "display": "Laboratory studies (set)"
        }, {
          "system": "http://loinc.org",
          "code": "18767-4",
          "display": "Blood gas studies (set)"
        } ]
      } ],
      "code": {
        "coding": [ {
          "system": "http://loinc.org",
          "code": "11557-8"
        } ],
        "text": "Oxygen [Partial pressure] in blood"
      },
      "subject": {
        "reference": "Patient/21e0d5b45804d2f5674bb1e505832d4facd6199e84a95c681fc99aaee46d33e9"
      },
      "encounter": {
        "reference": "Encounter/3795d720b91ec62c7e68716234034042ecb39df09e6f80bb13e2e4dd320ee705"
      },
      "effectiveDateTime": "2020-12-15T13:21:00+00:00",
      "valueQuantity": {
        "value": 42,
        "unit": "mmHg",
        "system": "http://unitsofmeasure.org",
        "code": "mm[Hg]"
      }
    },
    "request": {
      "method": "POST",
      "url": "Observation",
      "ifNoneExist": "identifier=https://mein.krankenhaus.de/fhir/NamingSystem/observationId|c796f7671d51831c02aa8893b6555d9151a6034609b724de284c59e5e4d785f0"
    }
  }, {
    "fullUrl": "Observation/c256fd98fcc0675222dddbccdde13b69a3c0ed600105612b00b156f1871a2000",
    "resource": {
      "resourceType": "Observation",
      "meta": {
        "profile": [ "https://www.netzwerk-universitaetsmedizin.de/fhir/StructureDefinition/inhaled-oxygen-concentration" ]
      },
      "identifier": [ {
        "type": {
          "coding": [ {
            "system": "http://terminology.hl7.org/CodeSystem/v2-0203",
            "code": "OBI",
            "display": "Observation Instance Identifier"
          } ]
        },
        "system": "https://mein.krankenhaus.de/fhir/NamingSystem/observationId",
        "value": "c290e5bb88caad5faa54eec9f60694be902509ec7d6ba0a4107d8c75824f37e4",
        "assigner": {
          "reference": "Organization/3a4f3433bce81181bad2d8e0b8fafccf7dc800bc06f29be73dcb38b750a48f9a"
        }
      } ],
      "status": "final",
      "category": [ {
        "coding": [ {
          "system": "http://terminology.hl7.org/CodeSystem/observation-category",
          "code": "laboratory",
          "display": "Laboratory"
        }, {
          "system": "http://loinc.org",
          "code": "26436-6",
          "display": "Laboratory studies (set)"
        }, {
          "system": "http://loinc.org",
          "code": "18767-4",
          "display": "Blood gas studies (set)"
        } ]
      } ],
      "code": {
        "coding": [ {
          "system": "http://loinc.org",
          "code": "3150-0"
        }, {
          "system": "http://snomed.info/sct",
          "code": "250774007"
        } ],
        "text": "Oxygen [Partial pressure] in blood"
      },
      "subject": {
        "reference": "Patient/21e0d5b45804d2f5674bb1e505832d4facd6199e84a95c681fc99aaee46d33e9"
      },
      "encounter": {
        "reference": "Encounter/3795d720b91ec62c7e68716234034042ecb39df09e6f80bb13e2e4dd320ee705"
      },
      "effectiveDateTime": "2020-12-15T13:21:00+00:00",
      "valueQuantity": {
        "value": 83.80261961345829,
        "unit": "%",
        "system": "http://unitsofmeasure.org",
        "code": "%"
      }
    },
    "request": {
      "method": "POST",
      "url": "Observation",
      "ifNoneExist": "identifier=https://mein.krankenhaus.de/fhir/NamingSystem/observationId|c256fd98fcc0675222dddbccdde13b69a3c0ed600105612b00b156f1871a2000"
    }
  }, {
    "fullUrl": "Observation/e1326a42635ddb8d6796777c3e9ea640c5d45970daa4841333bdf7fa9587becf",
    "resource": {
      "resourceType": "Observation",
      "meta": {
        "profile": [ "https://www.netzwerk-universitaetsmedizin.de/fhir/StructureDefinition/pH" ]
      },
      "identifier": [ {
        "type": {
          "coding": [ {
            "system": "http://terminology.hl7.org/CodeSystem/v2-0203",
            "code": "OBI",
            "display": "Observation Instance Identifier"
          } ]
        },
        "system": "https://mein.krankenhaus.de/fhir/NamingSystem/observationId",
        "value": "184f65350b4ea1989842166a41fd0468845e40f58242aaadb7687868efb8c30b",
        "assigner": {
          "reference": "Organization/3a4f3433bce81181bad2d8e0b8fafccf7dc800bc06f29be73dcb38b750a48f9a"
        }
      } ],
      "status": "final",
      "category": [ {
        "coding": [ {
          "system": "http://terminology.hl7.org/CodeSystem/observation-category",
          "code": "laboratory",
          "display": "Laboratory"
        }, {
          "system": "http://loinc.org",
          "code": "26436-6",
          "display": "Laboratory studies (set)"
        }, {
          "system": "http://loinc.org",
          "code": "18767-4",
          "display": "Blood gas studies (set)"
        } ]
      } ],
      "code": {
        "coding": [ {
          "system": "http://loinc.org",
          "code": "11558-4"
        } ],
        "text": "pH of Blood"
      },
      "subject": {
        "reference": "Patient/21e0d5b45804d2f5674bb1e505832d4facd6199e84a95c681fc99aaee46d33e9"
      },
      "encounter": {
        "reference": "Encounter/3795d720b91ec62c7e68716234034042ecb39df09e6f80bb13e2e4dd320ee705"
      },
      "effectiveDateTime": "2020-12-15T13:21:00+00:00",
      "valueQuantity": {
        "value": 12.418463247169079,
        "unit": "pH",
        "system": "http://unitsofmeasure.org",
        "code": "[pH]"
      }
    },
    "request": {
      "method": "POST",
      "url": "Observation",
      "ifNoneExist": "identifier=https://mein.krankenhaus.de/fhir/NamingSystem/observationId|e1326a42635ddb8d6796777c3e9ea640c5d45970daa4841333bdf7fa9587becf"
    }
  }, {
    "fullUrl": "Observation/d373a636b8364a7efbcb0564b82323cdd9af5d7e52c494546f5c8d13baa5f0cf",
    "resource": {
      "resourceType": "Observation",
      "meta": {
        "profile": [ "https://www.netzwerk-universitaetsmedizin.de/fhir/StructureDefinition/sofa-score" ]
      },
      "identifier": [ {
        "type": {
          "coding": [ {
            "system": "http://terminology.hl7.org/CodeSystem/v2-0203",
            "code": "OBI",
            "display": "Observation Instance Identifier"
          } ]
        },
        "system": "https://mein.krankenhaus.de/fhir/NamingSystem/observationId",
        "value": "e39879d86e56fec65df4d719555d4cdfe4e2ffd848634ed94b66d5af7270cb8a",
        "assigner": {
          "reference": "Organization/3a4f3433bce81181bad2d8e0b8fafccf7dc800bc06f29be73dcb38b750a48f9a"
        }
      } ],
      "status": "final",
      "category": [ {
        "coding": [ {
          "system": "http://terminology.hl7.org/CodeSystem/observation-category",
          "code": "survey",
          "display": "Survey"
        } ]
      } ],
      "code": {
        "coding": [ {
          "system": "https://www.netzwerk-universitaetsmedizin.de/fhir/CodeSystem/ecrf-parameter-codes",
          "code": "06",
          "display": "SOFA-Score"
        } ],
        "text": "Sepsis-related organ failure assessment score"
      },
      "subject": {
        "reference": "Patient/21e0d5b45804d2f5674bb1e505832d4facd6199e84a95c681fc99aaee46d33e9"
      },
      "encounter": {
        "reference": "Encounter/3795d720b91ec62c7e68716234034042ecb39df09e6f80bb13e2e4dd320ee705"
      },
      "effectiveDateTime": "2020-12-15T13:21:00+00:00",
      "valueInteger": 12,
      "component": [ {
        "code": {
          "coding": [ {
            "system": "https://www.netzwerk-universitaetsmedizin.de/fhir/CodeSystem/sofa-score",
            "code": "resp",
            "display": "Respiratory system"
          } ],
          "text": "SOFA Respiratory system scoring category"
        },
        "valueCodeableConcept": {
          "coding": [ {
            "system": "https://www.netzwerk-universitaetsmedizin.de/fhir/CodeSystem/sofa-score",
            "code": "resp4",
            "display": "Respiratory system SOFA score 4"
          } ],
          "text": "PaO2/FiO2 [mmHg (kPa)] < 100 (13.3) and mechanically ventilated"
        }
      }, {
        "code": {
          "coding": [ {
            "system": "https://www.netzwerk-universitaetsmedizin.de/fhir/CodeSystem/sofa-score",
            "code": "ns",
            "display": "Nervous system"
          } ],
          "text": "SOFA Nervous system scoring category"
        },
        "valueCodeableConcept": {
          "coding": [ {
            "system": "https://www.netzwerk-universitaetsmedizin.de/fhir/CodeSystem/sofa-score",
            "code": "ns2",
            "display": "Nervous system SOFA score 2"
          } ],
          "text": "Glasgow Coma Scale (GCS) 10-12"
        }
      }, {
        "code": {
          "coding": [ {
            "system": "https://www.netzwerk-universitaetsmedizin.de/fhir/CodeSystem/sofa-score",
            "code": "cvs",
            "display": "Cardiovascular system"
          } ],
          "text": "SOFA Cardiovascular system scoring category"
        },
        "valueCodeableConcept": {
          "coding": [ {
            "system": "https://www.netzwerk-universitaetsmedizin.de/fhir/CodeSystem/sofa-score",
            "code": "cvs2",
            "display": "Cardiovascular system SOFA score 2"
          } ],
          "text": "Administration of dopamine  5 ug/kg/min or dobutamine (any dose)"
        }
      }, {
        "code": {
          "coding": [ {
            "system": "https://www.netzwerk-universitaetsmedizin.de/fhir/CodeSystem/sofa-score",
            "code": "liv",
            "display": "Liver"
          } ],
          "text": "SOFA Liver scoring category"
        },
        "valueCodeableConcept": {
          "coding": [ {
            "system": "https://www.netzwerk-universitaetsmedizin.de/fhir/CodeSystem/sofa-score",
            "code": "liv1",
            "display": "Liver SOFA score 1"
          } ],
          "text": "Bilirubin (mg/dl) [umol/L] 1.2-1.9 [20-32]"
        }
      }, {
        "code": {
          "coding": [ {
            "system": "https://www.netzwerk-universitaetsmedizin.de/fhir/CodeSystem/sofa-score",
            "code": "coa",
            "display": "Coagulation"
          } ],
          "text": "SOFA Coagulation scoring category"
        },
        "valueCodeableConcept": {
          "coding": [ {
            "system": "https://www.netzwerk-universitaetsmedizin.de/fhir/CodeSystem/sofa-score",
            "code": "coa3",
            "display": "Coagulation SOFA score 3"
          } ],
          "text": "Platelets10^3/ul < 50"
        }
      } ]
    },
    "request": {
      "method": "POST",
      "url": "Observation",
      "ifNoneExist": "identifier=https://mein.krankenhaus.de/fhir/NamingSystem/observationId|d373a636b8364a7efbcb0564b82323cdd9af5d7e52c494546f5c8d13baa5f0cf"
    }
  }, {
    "fullUrl": "Observation/7a4cd9d44a99bbe7af8b745a51876f5510a970a34092ceb44f4a49a29071c3f8",
    "resource": {
      "resourceType": "Observation",
      "meta": {
        "profile": [ "https://www.netzwerk-universitaetsmedizin.de/fhir/StructureDefinition/respiratory-rate" ]
      },
      "identifier": [ {
        "type": {
          "coding": [ {
            "system": "http://terminology.hl7.org/CodeSystem/v2-0203",
            "code": "OBI",
            "display": "Observation Instance Identifier"
          } ]
        },
        "system": "https://mein.krankenhaus.de/fhir/NamingSystem/observationId",
        "value": "f723ed68977ec885ee455e3cf238e19216fd1991581627e36018a0e7d3b4cac9",
        "assigner": {
          "reference": "Organization/3a4f3433bce81181bad2d8e0b8fafccf7dc800bc06f29be73dcb38b750a48f9a"
        }
      } ],
      "status": "final",
      "category": [ {
        "coding": [ {
          "system": "http://terminology.hl7.org/CodeSystem/observation-category",
          "code": "vital-signs",
          "display": "Vital Signs"
        } ]
      } ],
      "code": {
        "coding": [ {
          "system": "http://loinc.org",
          "code": "9279-1"
        }, {
          "system": "http://snomed.info/sct",
          "code": "86290005"
        } ],
        "text": "Respiratory rate"
      },
      "subject": {
        "reference": "Patient/21e0d5b45804d2f5674bb1e505832d4facd6199e84a95c681fc99aaee46d33e9"
      },
      "encounter": {
        "reference": "Encounter/3795d720b91ec62c7e68716234034042ecb39df09e6f80bb13e2e4dd320ee705"
      },
      "effectiveDateTime": "2020-12-15T13:21:00+00:00",
      "valueQuantity": {
        "value": 54,
        "unit": "per minute",
        "system": "http://unitsofmeasure.org",
        "code": "/min"
      }
    },
    "request": {
      "method": "POST",
      "url": "Observation",
      "ifNoneExist": "identifier=https://mein.krankenhaus.de/fhir/NamingSystem/observationId|7a4cd9d44a99bbe7af8b745a51876f5510a970a34092ceb44f4a49a29071c3f8"
    }
  }, {
    "fullUrl": "Observation/d8118882e0ffec7baec107e7301496d6ec82ae916b05ce71589d107414634686",
    "resource": {
      "resourceType": "Observation",
      "meta": {
        "profile": [ "https://www.netzwerk-universitaetsmedizin.de/fhir/StructureDefinition/blood-pressure" ]
      },
      "identifier": [ {
        "type": {
          "coding": [ {
            "system": "http://terminology.hl7.org/CodeSystem/v2-0203",
            "code": "OBI",
            "display": "Observation Instance Identifier"
          } ]
        },
        "system": "https://mein.krankenhaus.de/fhir/NamingSystem/observationId",
        "value": "b0ca04e419e31ee02ee67fb5124424dbf06dfa7a56a6d8a7d4c122ac3c39271d",
        "assigner": {
          "reference": "Organization/3a4f3433bce81181bad2d8e0b8fafccf7dc800bc06f29be73dcb38b750a48f9a"
        }
      } ],
      "status": "final",
      "category": [ {
        "coding": [ {
          "system": "http://terminology.hl7.org/CodeSystem/observation-category",
          "code": "vital-signs",
          "display": "Vital Signs"
        } ]
      } ],
      "code": {
        "coding": [ {
          "system": "http://loinc.org",
          "code": "85354-9",
          "display": "Blood pressure panel with all children optional"
        }, {
          "system": "http://snomed.info/sct",
          "code": "75367002",
          "display": "Blood pressure (observable entity)"
        } ],
        "text": "Blood pressure"
      },
      "subject": {
        "reference": "Patient/21e0d5b45804d2f5674bb1e505832d4facd6199e84a95c681fc99aaee46d33e9"
      },
      "encounter": {
        "reference": "Encounter/3795d720b91ec62c7e68716234034042ecb39df09e6f80bb13e2e4dd320ee705"
      },
      "effectiveDateTime": "2020-12-15T13:21:00+00:00",
      "component": [ {
        "code": {
          "coding": [ {
            "system": "http://loinc.org",
            "code": "8480-6"
          }, {
            "system": "http://snomed.info/sct",
            "code": "271649006"
          } ],
          "text": "Systolic blood pressure"
        },
        "valueQuantity": {
          "value": 188,
          "unit": "mmHg",
          "system": "http://unitsofmeasure.org",
          "code": "mm[Hg]"
        }
      }, {
        "code": {
          "coding": [ {
            "system": "http://loinc.org",
            "code": "8462-4"
          }, {
            "system": "http://snomed.info/sct",
            "code": "271650006"
          } ],
          "text": "Diastolic blood pressure"
        },
        "valueQuantity": {
          "value": 101,
          "unit": "mmHg",
          "system": "http://unitsofmeasure.org",
          "code": "mm[Hg]"
        }
      } ]
    },
    "request": {
      "method": "POST",
      "url": "Observation",
      "ifNoneExist": "identifier=https://mein.krankenhaus.de/fhir/NamingSystem/observationId|d8118882e0ffec7baec107e7301496d6ec82ae916b05ce71589d107414634686"
    }
  }, {
    "fullUrl": "Observation/b0b3a45393414425984d63bae59f7363d0b1beed29c6449adca86a6abcfc5319",
    "resource": {
      "resourceType": "Observation",
      "meta": {
        "profile": [ "https://www.netzwerk-universitaetsmedizin.de/fhir/StructureDefinition/heart-rate" ]
      },
      "identifier": [ {
        "type": {
          "coding": [ {
            "system": "http://terminology.hl7.org/CodeSystem/v2-0203",
            "code": "OBI",
            "display": "Observation Instance Identifier"
          } ]
        },
        "system": "https://mein.krankenhaus.de/fhir/NamingSystem/observationId",
        "value": "218cb033335a7cbe524f0de57c8b622589a90d9a21d9d202181fd7f860a26e01",
        "assigner": {
          "reference": "Organization/3a4f3433bce81181bad2d8e0b8fafccf7dc800bc06f29be73dcb38b750a48f9a"
        }
      } ],
      "status": "final",
      "category": [ {
        "coding": [ {
          "system": "http://terminology.hl7.org/CodeSystem/observation-category",
          "code": "vital-signs",
          "display": "Vital Signs"
        } ]
      } ],
      "code": {
        "coding": [ {
          "system": "http://loinc.org",
          "code": "8867-4"
        }, {
          "system": "http://snomed.info/sct",
          "code": "364075005"
        } ],
        "text": "Heart rate"
      },
      "subject": {
        "reference": "Patient/21e0d5b45804d2f5674bb1e505832d4facd6199e84a95c681fc99aaee46d33e9"
      },
      "encounter": {
        "reference": "Encounter/3795d720b91ec62c7e68716234034042ecb39df09e6f80bb13e2e4dd320ee705"
      },
      "effectiveDateTime": "2020-12-15T13:21:00+00:00",
      "valueQuantity": {
        "value": 48,
        "unit": "per minute",
        "system": "http://unitsofmeasure.org",
        "code": "/min"
      }
    },
    "request": {
      "method": "POST",
      "url": "Observation",
      "ifNoneExist": "identifier=https://mein.krankenhaus.de/fhir/NamingSystem/observationId|b0b3a45393414425984d63bae59f7363d0b1beed29c6449adca86a6abcfc5319"
    }
  }, {
    "fullUrl": "Observation/4a716eb96ad139c1950427623eeab31ed5902b8f3e61c3a6fd0fdd0e389aef82",
    "resource": {
      "resourceType": "Observation",
      "meta": {
        "profile": [ "https://www.netzwerk-universitaetsmedizin.de/fhir/StructureDefinition/body-temperature" ]
      },
      "identifier": [ {
        "type": {
          "coding": [ {
            "system": "http://terminology.hl7.org/CodeSystem/v2-0203",
            "code": "OBI",
            "display": "Observation Instance Identifier"
          } ]
        },
        "system": "https://mein.krankenhaus.de/fhir/NamingSystem/observationId",
        "value": "fe76ef1c384c0776ec4eae646908352e86c9527c33bb0a759b2bed09297042d8",
        "assigner": {
          "reference": "Organization/3a4f3433bce81181bad2d8e0b8fafccf7dc800bc06f29be73dcb38b750a48f9a"
        }
      } ],
      "status": "final",
      "category": [ {
        "coding": [ {
          "system": "http://terminology.hl7.org/CodeSystem/observation-category",
          "code": "vital-signs",
          "display": "Vital Signs"
        } ]
      } ],
      "code": {
        "coding": [ {
          "system": "http://loinc.org",
          "code": "8310-5"
        }, {
          "system": "http://snomed.info/sct",
          "code": "386725007"
        } ],
        "text": "Body temperature"
      },
      "subject": {
        "reference": "Patient/21e0d5b45804d2f5674bb1e505832d4facd6199e84a95c681fc99aaee46d33e9"
      },
      "encounter": {
        "reference": "Encounter/3795d720b91ec62c7e68716234034042ecb39df09e6f80bb13e2e4dd320ee705"
      },
      "effectiveDateTime": "2020-12-15T13:21:00+00:00",
      "valueQuantity": {
        "value": 40.31965020323929,
        "unit": "C",
        "system": "http://unitsofmeasure.org",
        "code": "Cel"
      }
    },
    "request": {
      "method": "POST",
      "url": "Observation",
      "ifNoneExist": "identifier=https://mein.krankenhaus.de/fhir/NamingSystem/observationId|4a716eb96ad139c1950427623eeab31ed5902b8f3e61c3a6fd0fdd0e389aef82"
    }
  }, {
    "fullUrl": "Observation/8e1cd728ca93bede06259e36bf9a3993af6f3135b5fd24d490cad7300e35235f",
    "resource": {
      "resourceType": "Observation",
      "meta": {
        "profile": [ "https://www.netzwerk-universitaetsmedizin.de/fhir/StructureDefinition/oxygen-saturation" ]
      },
      "identifier": [ {
        "type": {
          "coding": [ {
            "system": "http://terminology.hl7.org/CodeSystem/v2-0203",
            "code": "OBI",
            "display": "Observation Instance Identifier"
          } ]
        },
        "system": "https://mein.krankenhaus.de/fhir/NamingSystem/observationId",
        "value": "cc94ccde2fc661f061dbd7c109f148bb31a1e7632c2b1cde73d71cb7ce39bbdd",
        "assigner": {
          "reference": "Organization/3a4f3433bce81181bad2d8e0b8fafccf7dc800bc06f29be73dcb38b750a48f9a"
        }
      } ],
      "status": "final",
      "category": [ {
        "coding": [ {
          "system": "http://terminology.hl7.org/CodeSystem/observation-category",
          "code": "vital-signs",
          "display": "Vital Signs"
        } ]
      } ],
      "code": {
        "coding": [ {
          "system": "http://loinc.org",
          "code": "2708-6"
        }, {
          "system": "http://loinc.org",
          "code": "59408-5"
        }, {
          "system": "http://loinc.org",
          "code": "20564-1"
        }, {
          "system": "http://snomed.info/sct",
          "code": "431314004"
        } ],
        "text": "Oxygen saturation in Arterial blood"
      },
      "subject": {
        "reference": "Patient/21e0d5b45804d2f5674bb1e505832d4facd6199e84a95c681fc99aaee46d33e9"
      },
      "encounter": {
        "reference": "Encounter/3795d720b91ec62c7e68716234034042ecb39df09e6f80bb13e2e4dd320ee705"
      },
      "effectiveDateTime": "2020-12-15T13:21:00+00:00",
      "valueQuantity": {
        "value": 68,
        "unit": "%",
        "system": "http://unitsofmeasure.org",
        "code": "%"
      }
    },
    "request": {
      "method": "POST",
      "url": "Observation",
      "ifNoneExist": "identifier=https://mein.krankenhaus.de/fhir/NamingSystem/observationId|8e1cd728ca93bede06259e36bf9a3993af6f3135b5fd24d490cad7300e35235f"
    }
  }, {
    "fullUrl": "Consent/70384817bbe2b5427f2d8f5ce79683a2f5903cb871b009bf22424efcb77d411d",
    "resource": {
      "resourceType": "Consent",
      "meta": {
        "profile": [ "http://fhir.de/ConsentManagement/StructureDefinition/Consent" ]
      },
      "identifier": [ {
        "system": "https://mein.krankenhaus.de/fhir/NamingSystem/consentId",
        "value": "071b0baf6571357728257217c8bfa41c78f0fabdf5ae239c115bad739896b48a"
      } ],
      "scope": {
        "coding": [ {
          "system": "http://terminology.hl7.org/CodeSystem/consentcategorycodes",
          "code": "research",
          "display": "Research Information Access"
        } ]
      },
      "category": [ {
        "coding": [ {
          "system": "http://loinc.org",
          "code": "57016-8"
        } ]
      } ],
      "patient": {
        "reference": "Patient/21e0d5b45804d2f5674bb1e505832d4facd6199e84a95c681fc99aaee46d33e9"
      },
      "dateTime": "2020-08-21",
      "organization": [ {
        "reference": "Organization/3a4f3433bce81181bad2d8e0b8fafccf7dc800bc06f29be73dcb38b750a48f9a"
      } ],
      "policy": [ {
        "uri": "https://www.medizininformatik-initiative.de/sites/default/files/2020-04/MII_AG-Consent_Einheitlicher-Mustertext_v1.6d.pdf"
      } ],
      "provision": {
        "type": "deny",
        "period": {
          "start": "2020-08-21T00:00:00+00:00",
          "end": "2050-08-21T00:00:00+00:00"
        }
      }
    },
    "request": {
      "method": "POST",
      "url": "Consent",
      "ifNoneExist": "identifier=https://mein.krankenhaus.de/fhir/NamingSystem/consentId|70384817bbe2b5427f2d8f5ce79683a2f5903cb871b009bf22424efcb77d411d"
    }
  }, {
    "fullUrl": "Observation/5a1eccb93f1a082d47ab097beb9c3d3df73d1202bbf1e87e0d9848bc19a47170",
    "resource": {
      "resourceType": "Observation",
      "meta": {
        "profile": [ "https://www.netzwerk-universitaetsmedizin.de/fhir/StructureDefinition/study-inclusion-covid-19" ]
      },
      "identifier": [ {
        "type": {
          "coding": [ {
            "system": "http://terminology.hl7.org/CodeSystem/v2-0203",
            "code": "OBI",
            "display": "Observation Instance Identifier"
          } ]
        },
        "system": "https://mein.krankenhaus.de/fhir/NamingSystem/observationId",
        "value": "d40f5fcd781892bb24584d3e25684f209334b7b3ed46cc0b184cdf5ba62c36af",
        "assigner": {
          "reference": "Organization/3a4f3433bce81181bad2d8e0b8fafccf7dc800bc06f29be73dcb38b750a48f9a"
        }
      } ],
      "status": "final",
      "category": [ {
        "coding": [ {
          "system": "http://terminology.hl7.org/CodeSystem/observation-category",
          "code": "survey",
          "display": "Survey"
        } ]
      } ],
      "code": {
        "coding": [ {
          "system": "https://www.netzwerk-universitaetsmedizin.de/fhir/CodeSystem/ecrf-parameter-codes",
          "code": "02",
          "display": "Study inclusion due to Covid-19"
        } ],
        "text": "Confirmed Covid-19 diagnosis as main reason for enrolment in the study"
      },
      "subject": {
        "reference": "Patient/21e0d5b45804d2f5674bb1e505832d4facd6199e84a95c681fc99aaee46d33e9"
      },
      "_effectiveDateTime": {
        "extension": [ {
          "url": "http://hl7.org/fhir/StructureDefinition/data-absent-reason",
          "valueCode": "unknown"
        } ]
      },
      "valueCodeableConcept": {
        "coding": [ {
          "system": "http://snomed.info/sct",
          "code": "261665006"
        } ]
      }
    },
    "request": {
      "method": "POST",
      "url": "Observation",
      "ifNoneExist": "identifier=https://mein.krankenhaus.de/fhir/NamingSystem/observationId|5a1eccb93f1a082d47ab097beb9c3d3df73d1202bbf1e87e0d9848bc19a47170"
    }
  }, {
    "fullUrl": "Observation/7db9fff4e5418adcdfe7fb0abfb41bb3ba789e0adcc2bdb1894028c835bb1a4e",
    "resource": {
      "resourceType": "Observation",
      "meta": {
        "profile": [ "https://www.netzwerk-universitaetsmedizin.de/fhir/StructureDefinition/interventional-clinical-trial-participation" ]
      },
      "identifier": [ {
        "type": {
          "coding": [ {
            "system": "http://terminology.hl7.org/CodeSystem/v2-0203",
            "code": "OBI",
            "display": "Observation Instance Identifier"
          } ]
        },
        "system": "https://mein.krankenhaus.de/fhir/NamingSystem/observationId",
        "value": "d7c152a8c770f1169315412388298c0aa64fd5961515ab89b72865096bef67dd",
        "assigner": {
          "reference": "Organization/3a4f3433bce81181bad2d8e0b8fafccf7dc800bc06f29be73dcb38b750a48f9a"
        }
      } ],
      "status": "final",
      "category": [ {
        "coding": [ {
          "system": "http://terminology.hl7.org/CodeSystem/observation-category",
          "code": "survey",
          "display": "Survey"
        } ]
      } ],
      "code": {
        "coding": [ {
          "system": "https://www.netzwerk-universitaetsmedizin.de/fhir/CodeSystem/ecrf-parameter-codes",
          "code": "03",
          "display": "Participation in interventional clinical trials"
        } ],
        "text": "Has the patient participated in one or more interventional clinical trials?"
      },
      "subject": {
        "reference": "Patient/21e0d5b45804d2f5674bb1e505832d4facd6199e84a95c681fc99aaee46d33e9"
      },
      "_effectiveDateTime": {
        "extension": [ {
          "url": "http://hl7.org/fhir/StructureDefinition/data-absent-reason",
          "valueCode": "unknown"
        } ]
      },
      "valueCodeableConcept": {
        "coding": [ {
          "system": "http://snomed.info/sct",
          "code": "373067005"
        } ]
      }
    },
    "request": {
      "method": "POST",
      "url": "Observation",
      "ifNoneExist": "identifier=https://mein.krankenhaus.de/fhir/NamingSystem/observationId|7db9fff4e5418adcdfe7fb0abfb41bb3ba789e0adcc2bdb1894028c835bb1a4e"
    }
  } ]
}