{
  "resourceType": "Bundle",
  "meta": {
    "profile": [ "https://www.netzwerk-universitaetsmedizin.de/fhir/StructureDefinition/gecco-bundle" ]
  },
  "type": "transaction",
  "entry": [ {
    "fullUrl": "Patient/fb7433249e2539171013c8a104cb96cc85b44bd6fedaeff0cd61d2c73a3402f4",
    "resource": {
      "resourceType": "Patient",
      "meta": {
        "profile": [ "https://www.netzwerk-universitaetsmedizin.de/fhir/StructureDefinition/Patient" ]
      },
      "extension": [ {
        "url": "https://www.netzwerk-universitaetsmedizin.de/fhir/StructureDefinition/age",
        "extension": [ {
          "url": "dateTimeOfDocumentation",
          "_valueDateTime": {
            "extension": [ {
              "url": "http://hl7.org/fhir/StructureDefinition/data-absent-reason",
              "valueCode": "unknown"
            } ]
          }
        }, {
          "url": "age",
          "valueAge": {
            "value": 54,
            "unit": "years",
            "system": "http://unitsofmeasure.org",
            "code": "a"
          }
        } ]
      }, {
        "url": "https://www.netzwerk-universitaetsmedizin.de/fhir/StructureDefinition/ethnic-group",
        "valueCoding": {
          "system": "http://snomed.info/sct",
          "code": "90027003"
        }
      } ],
      "identifier": [ {
        "type": {
          "coding": [ {
            "system": "http://terminology.hl7.org/CodeSystem/v2-0203",
            "code": "MR"
          } ]
        },
        "system": "https://mein.krankenhaus.de/fhir/NamingSystem/patientId",
        "value": "synthetic_patient_700082549",
        "assigner": {
          "reference": "Organization/3a4f3433bce81181bad2d8e0b8fafccf7dc800bc06f29be73dcb38b750a48f9a"
        }
      } ],
      "birthDate": "1967-01-09"
    },
    "request": {
      "method": "POST",
      "url": "Patient",
      "ifNoneExist": "identifier=https://mein.krankenhaus.de/fhir/NamingSystem/patientId|fb7433249e2539171013c8a104cb96cc85b44bd6fedaeff0cd61d2c73a3402f4"
    }
  }, {
    "fullUrl": "Organization/3a4f3433bce81181bad2d8e0b8fafccf7dc800bc06f29be73dcb38b750a48f9a",
    "resource": {
      "resourceType": "Organization",
      "name": "Mein Krankenhaus"
    },
    "request": {
      "method": "POST",
      "url": "Organization",
      "ifNoneExist": "identifier=null|3a4f3433bce81181bad2d8e0b8fafccf7dc800bc06f29be73dcb38b750a48f9a"
    }
  }, {
    "fullUrl": "Encounter/b50ca6bae511fdcb46808a467678c1ae0619e72c01b44162615d25408e65047e",
    "resource": {
      "resourceType": "Encounter",
      "identifier": [ {
        "system": "https://mein.krankenhaus.de/fhir/NamingSystem/encounterId",
        "value": "8d371e9024d185bc49c6876ca0c94a54b6c8850a48f2c48c4aeac5f8eadca80a",
        "assigner": {
          "reference": "Organization/3a4f3433bce81181bad2d8e0b8fafccf7dc800bc06f29be73dcb38b750a48f9a"
        }
      } ],
      "status": "unknown",
      "class": {
        "system": "http://terminology.hl7.org/CodeSystem/v3-ActCode",
        "code": "IMP",
        "display": "inpatient encounter"
      },
      "subject": {
        "reference": "Patient/fb7433249e2539171013c8a104cb96cc85b44bd6fedaeff0cd61d2c73a3402f4"
      }
    },
    "request": {
      "method": "POST",
      "url": "Encounter",
      "ifNoneExist": "identifier=https://mein.krankenhaus.de/fhir/NamingSystem/encounterId|b50ca6bae511fdcb46808a467678c1ae0619e72c01b44162615d25408e65047e"
    }
  }, {
    "fullUrl": "Condition/2a8a99beaaf13db2c62827817104c8cf708ccc713b0ef5235b94c32be6a0a444",
    "resource": {
      "resourceType": "Condition",
      "meta": {
        "profile": [ "https://www.netzwerk-universitaetsmedizin.de/fhir/StructureDefinition/diagnosis-covid-19" ]
      },
      "identifier": [ {
        "system": "https://mein.krankenhaus.de/fhir/NamingSystem/conditionId",
        "value": "b3abcf629d3822adf66d69e6900242ade04cae0ea30804f7e278bc511d8dd47c"
      } ],
      "clinicalStatus": {
        "coding": [ {
          "system": "http://terminology.hl7.org/CodeSystem/condition-clinical",
          "code": "active",
          "display": "Active"
        } ]
      },
      "verificationStatus": {
        "coding": [ {
          "system": "http://terminology.hl7.org/CodeSystem/condition-ver-status",
          "code": "confirmed",
          "display": "Confirmed"
        }, {
          "system": "http://snomed.info/sct",
          "code": "410605003",
          "display": "Confirmed present (qualifier value)"
        } ]
      },
      "category": [ {
        "coding": [ {
          "system": "http://snomed.info/sct",
          "code": "394807007",
          "display": "Infectious diseases (specialty) (qualifier value)"
        } ]
      } ],
      "code": {
        "coding": [ {
          "system": "http://snomed.info/sct",
          "code": "840539006",
          "display": "Disease caused by Severe acute respiratory syndrome coronavirus 2 (disorder)"
        } ]
      },
      "subject": {
        "reference": "Patient/fb7433249e2539171013c8a104cb96cc85b44bd6fedaeff0cd61d2c73a3402f4"
      },
      "encounter": {
        "reference": "Encounter/b50ca6bae511fdcb46808a467678c1ae0619e72c01b44162615d25408e65047e"
      },
      "_recordedDate": {
        "extension": [ {
          "url": "http://hl7.org/fhir/StructureDefinition/data-absent-reason",
          "valueCode": "unknown"
        } ]
      },
      "stage": [ {
        "summary": {
          "coding": [ {
            "system": "http://snomed.info/sct",
            "code": "399166001"
          } ]
        },
        "type": {
          "coding": [ {
            "system": "http://loinc.org",
            "code": "88859-4"
          } ]
        }
      } ]
    },
    "request": {
      "method": "POST",
      "url": "Condition",
      "ifNoneExist": "identifier=https://mein.krankenhaus.de/fhir/NamingSystem/conditionId|2a8a99beaaf13db2c62827817104c8cf708ccc713b0ef5235b94c32be6a0a444"
    }
  }, {
    "fullUrl": "Condition/5f13f135b49df493381b7efd462f9b08c8199b377d1424059d3a2008e75fde95",
    "resource": {
      "resourceType": "Condition",
      "meta": {
        "profile": [ "https://www.netzwerk-universitaetsmedizin.de/fhir/StructureDefinition/chronic-lung-diseases" ]
      },
      "identifier": [ {
        "system": "https://mein.krankenhaus.de/fhir/NamingSystem/conditionId",
        "value": "0e6c02c526c9b087da331a02c4535e9789b8eb647ab5b3b861352e30e2ec90a3"
      } ],
      "verificationStatus": {
        "coding": [ {
          "system": "http://terminology.hl7.org/CodeSystem/condition-ver-status",
          "code": "refuted",
          "display": "Refuted"
        }, {
          "system": "http://snomed.info/sct",
          "code": "410594000",
          "display": "Definitely NOT present (qualifier value)"
        } ]
      },
      "category": [ {
        "coding": [ {
          "system": "http://snomed.info/sct",
          "code": "418112009",
          "display": "Pulmonary medicine (qualifier value)"
        } ]
      } ],
      "code": {
        "coding": [ {
          "system": "http://fhir.de/CodeSystem/dimdi/icd-10-gm",
          "version": "2021",
          "code": "J45.9"
        }, {
          "system": "http://snomed.info/sct",
          "code": "195967001"
        } ]
      },
      "subject": {
        "reference": "Patient/fb7433249e2539171013c8a104cb96cc85b44bd6fedaeff0cd61d2c73a3402f4"
      },
      "encounter": {
        "reference": "Encounter/b50ca6bae511fdcb46808a467678c1ae0619e72c01b44162615d25408e65047e"
      },
      "_recordedDate": {
        "extension": [ {
          "url": "http://hl7.org/fhir/StructureDefinition/data-absent-reason",
          "valueCode": "unknown"
        } ]
      }
    },
    "request": {
      "method": "POST",
      "url": "Condition",
      "ifNoneExist": "identifier=https://mein.krankenhaus.de/fhir/NamingSystem/conditionId|5f13f135b49df493381b7efd462f9b08c8199b377d1424059d3a2008e75fde95"
    }
  }, {
    "fullUrl": "Condition/cf17016b4c7c9b387ca038baab7563b4abd1eb963a8bc2df1711ffd89c9524d2",
    "resource": {
      "resourceType": "Condition",
      "meta": {
        "profile": [ "https://www.netzwerk-universitaetsmedizin.de/fhir/StructureDefinition/chronic-lung-diseases" ]
      },
      "identifier": [ {
        "system": "https://mein.krankenhaus.de/fhir/NamingSystem/conditionId",
        "value": "48e49d7760640265c0134f24aa4638b6bb962330e5623d3d7c7ec08972604829"
      } ],
      "verificationStatus": {
        "coding": [ {
          "system": "http://terminology.hl7.org/CodeSystem/condition-ver-status",
          "code": "refuted",
          "display": "Refuted"
        }, {
          "system": "http://snomed.info/sct",
          "code": "410594000",
          "display": "Definitely NOT present (qualifier value)"
        } ]
      },
      "category": [ {
        "coding": [ {
          "system": "http://snomed.info/sct",
          "code": "418112009",
          "display": "Pulmonary medicine (qualifier value)"
        } ]
      } ],
      "code": {
        "coding": [ {
          "system": "http://fhir.de/CodeSystem/dimdi/icd-10-gm",
          "version": "2021",
          "code": "J44.9"
        }, {
          "system": "http://snomed.info/sct",
          "code": "13645005"
        } ]
      },
      "subject": {
        "reference": "Patient/fb7433249e2539171013c8a104cb96cc85b44bd6fedaeff0cd61d2c73a3402f4"
      },
      "encounter": {
        "reference": "Encounter/b50ca6bae511fdcb46808a467678c1ae0619e72c01b44162615d25408e65047e"
      },
      "_recordedDate": {
        "extension": [ {
          "url": "http://hl7.org/fhir/StructureDefinition/data-absent-reason",
          "valueCode": "unknown"
        } ]
      }
    },
    "request": {
      "method": "POST",
      "url": "Condition",
      "ifNoneExist": "identifier=https://mein.krankenhaus.de/fhir/NamingSystem/conditionId|cf17016b4c7c9b387ca038baab7563b4abd1eb963a8bc2df1711ffd89c9524d2"
    }
  }, {
    "fullUrl": "Condition/81eec3dd87bdab5efd2b76e3cbb7329a025c0bf254c2b033b1a1d3e95ba61afd",
    "resource": {
      "resourceType": "Condition",
      "meta": {
        "profile": [ "https://www.netzwerk-universitaetsmedizin.de/fhir/StructureDefinition/chronic-lung-diseases" ]
      },
      "identifier": [ {
        "system": "https://mein.krankenhaus.de/fhir/NamingSystem/conditionId",
        "value": "dd3f1dedd40e47d67198965492a394b6389bd0a003161b5a6a43732983f54017"
      } ],
      "clinicalStatus": {
        "coding": [ {
          "system": "http://terminology.hl7.org/CodeSystem/condition-clinical",
          "code": "active",
          "display": "Active"
        } ]
      },
      "verificationStatus": {
        "coding": [ {
          "system": "http://terminology.hl7.org/CodeSystem/condition-ver-status",
          "code": "confirmed",
          "display": "Confirmed"
        }, {
          "system": "http://snomed.info/sct",
          "code": "410605003",
          "display": "Confirmed present (qualifier value)"
        } ]
      },
      "category": [ {
        "coding": [ {
          "system": "http://snomed.info/sct",
          "code": "418112009",
          "display": "Pulmonary medicine (qualifier value)"
        } ]
      } ],
      "code": {
        "coding": [ {
          "system": "http://fhir.de/CodeSystem/dimdi/icd-10-gm",
          "version": "2021",
          "code": "J84.1"
        }, {
          "system": "http://snomed.info/sct",
          "code": "51615001"
        } ]
      },
      "subject": {
        "reference": "Patient/fb7433249e2539171013c8a104cb96cc85b44bd6fedaeff0cd61d2c73a3402f4"
      },
      "encounter": {
        "reference": "Encounter/b50ca6bae511fdcb46808a467678c1ae0619e72c01b44162615d25408e65047e"
      },
      "_recordedDate": {
        "extension": [ {
          "url": "http://hl7.org/fhir/StructureDefinition/data-absent-reason",
          "valueCode": "unknown"
        } ]
      }
    },
    "request": {
      "method": "POST",
      "url": "Condition",
      "ifNoneExist": "identifier=https://mein.krankenhaus.de/fhir/NamingSystem/conditionId|81eec3dd87bdab5efd2b76e3cbb7329a025c0bf254c2b033b1a1d3e95ba61afd"
    }
  }, {
    "fullUrl": "Condition/455b20db76572a28056377c9e55999e34c37397f55de40afe808f3473f5751fa",
    "resource": {
      "resourceType": "Condition",
      "meta": {
        "profile": [ "https://www.netzwerk-universitaetsmedizin.de/fhir/StructureDefinition/chronic-lung-diseases" ]
      },
      "identifier": [ {
        "system": "https://mein.krankenhaus.de/fhir/NamingSystem/conditionId",
        "value": "5b0cb1f3d31056e879756484f824d7421ed4078b9ace1c6db0287996ac981751"
      } ],
      "clinicalStatus": {
        "coding": [ {
          "system": "http://terminology.hl7.org/CodeSystem/condition-clinical",
          "code": "active",
          "display": "Active"
        } ]
      },
      "verificationStatus": {
        "coding": [ {
          "system": "http://terminology.hl7.org/CodeSystem/condition-ver-status",
          "code": "confirmed",
          "display": "Confirmed"
        }, {
          "system": "http://snomed.info/sct",
          "code": "410605003",
          "display": "Confirmed present (qualifier value)"
        } ]
      },
      "category": [ {
        "coding": [ {
          "system": "http://snomed.info/sct",
          "code": "418112009",
          "display": "Pulmonary medicine (qualifier value)"
        } ]
      } ],
      "code": {
        "coding": [ {
          "system": "http://fhir.de/CodeSystem/dimdi/icd-10-gm",
          "version": "2021",
          "code": "I27.0"
        }, {
          "system": "http://snomed.info/sct",
          "code": "70995007"
        } ]
      },
      "subject": {
        "reference": "Patient/fb7433249e2539171013c8a104cb96cc85b44bd6fedaeff0cd61d2c73a3402f4"
      },
      "encounter": {
        "reference": "Encounter/b50ca6bae511fdcb46808a467678c1ae0619e72c01b44162615d25408e65047e"
      },
      "_recordedDate": {
        "extension": [ {
          "url": "http://hl7.org/fhir/StructureDefinition/data-absent-reason",
          "valueCode": "unknown"
        } ]
      }
    },
    "request": {
      "method": "POST",
      "url": "Condition",
      "ifNoneExist": "identifier=https://mein.krankenhaus.de/fhir/NamingSystem/conditionId|455b20db76572a28056377c9e55999e34c37397f55de40afe808f3473f5751fa"
    }
  }, {
    "fullUrl": "Condition/e3a3371151dfbe66423a560311e52bea4c33074bcd9fad5ed3918e4e9d62c3c7",
    "resource": {
      "resourceType": "Condition",
      "meta": {
        "profile": [ "https://www.netzwerk-universitaetsmedizin.de/fhir/StructureDefinition/chronic-lung-diseases" ]
      },
      "modifierExtension": [ {
        "url": "https://www.netzwerk-universitaetsmedizin.de/fhir/StructureDefinition/uncertainty-of-presence",
        "valueCodeableConcept": {
          "coding": [ {
            "system": "http://snomed.info/sct",
            "code": "261665006",
            "display": "Unknown (qualifier value)"
          } ],
          "text": "Presence unknown."
        }
      } ],
      "identifier": [ {
        "system": "https://mein.krankenhaus.de/fhir/NamingSystem/conditionId",
        "value": "0ceec3015b54224ccb9a2fd7638606d016ee92152cbf94560a2ea24081a546a0"
      } ],
      "category": [ {
        "coding": [ {
          "system": "http://snomed.info/sct",
          "code": "418112009",
          "display": "Pulmonary medicine (qualifier value)"
        } ]
      } ],
      "code": {
        "coding": [ {
          "system": "http://fhir.de/CodeSystem/dimdi/icd-10-gm",
          "version": "2021",
          "code": "E66.29"
        }, {
          "system": "http://snomed.info/sct",
          "code": "190966007"
        } ]
      },
      "subject": {
        "reference": "Patient/fb7433249e2539171013c8a104cb96cc85b44bd6fedaeff0cd61d2c73a3402f4"
      },
      "encounter": {
        "reference": "Encounter/b50ca6bae511fdcb46808a467678c1ae0619e72c01b44162615d25408e65047e"
      },
      "_recordedDate": {
        "extension": [ {
          "url": "http://hl7.org/fhir/StructureDefinition/data-absent-reason",
          "valueCode": "unknown"
        } ]
      }
    },
    "request": {
      "method": "POST",
      "url": "Condition",
      "ifNoneExist": "identifier=https://mein.krankenhaus.de/fhir/NamingSystem/conditionId|e3a3371151dfbe66423a560311e52bea4c33074bcd9fad5ed3918e4e9d62c3c7"
    }
  }, {
    "fullUrl": "Condition/213601b1db8624ce6d885b77280d06799fcb88db70668c7f0c15669abd8b4748",
    "resource": {
      "resourceType": "Condition",
      "meta": {
        "profile": [ "https://www.netzwerk-universitaetsmedizin.de/fhir/StructureDefinition/chronic-lung-diseases" ]
      },
      "modifierExtension": [ {
        "url": "https://www.netzwerk-universitaetsmedizin.de/fhir/StructureDefinition/uncertainty-of-presence",
        "valueCodeableConcept": {
          "coding": [ {
            "system": "http://snomed.info/sct",
            "code": "261665006",
            "display": "Unknown (qualifier value)"
          } ],
          "text": "Presence unknown."
        }
      } ],
      "identifier": [ {
        "system": "https://mein.krankenhaus.de/fhir/NamingSystem/conditionId",
        "value": "08677e300c4b788408916f78f0cd5659c72fa304bf1c9a44875fed1dd2d69d71"
      } ],
      "category": [ {
        "coding": [ {
          "system": "http://snomed.info/sct",
          "code": "418112009",
          "display": "Pulmonary medicine (qualifier value)"
        } ]
      } ],
      "code": {
        "coding": [ {
          "system": "http://fhir.de/CodeSystem/dimdi/icd-10-gm",
          "version": "2021",
          "code": "G47.3"
        }, {
          "system": "http://snomed.info/sct",
          "code": "73430006"
        } ]
      },
      "subject": {
        "reference": "Patient/fb7433249e2539171013c8a104cb96cc85b44bd6fedaeff0cd61d2c73a3402f4"
      },
      "encounter": {
        "reference": "Encounter/b50ca6bae511fdcb46808a467678c1ae0619e72c01b44162615d25408e65047e"
      },
      "_recordedDate": {
        "extension": [ {
          "url": "http://hl7.org/fhir/StructureDefinition/data-absent-reason",
          "valueCode": "unknown"
        } ]
      }
    },
    "request": {
      "method": "POST",
      "url": "Condition",
      "ifNoneExist": "identifier=https://mein.krankenhaus.de/fhir/NamingSystem/conditionId|213601b1db8624ce6d885b77280d06799fcb88db70668c7f0c15669abd8b4748"
    }
  }, {
    "fullUrl": "Condition/00b7772adce88f614bc3f0fd640e9491d56ac9cf09f04396e0102b84758ee68c",
    "resource": {
      "resourceType": "Condition",
      "meta": {
        "profile": [ "https://www.netzwerk-universitaetsmedizin.de/fhir/StructureDefinition/chronic-lung-diseases" ]
      },
      "identifier": [ {
        "system": "https://mein.krankenhaus.de/fhir/NamingSystem/conditionId",
        "value": "e688ab5b6cfac0963fc279c28248af283faacf80e0e502bd537af389002b39dd"
      } ],
      "verificationStatus": {
        "coding": [ {
          "system": "http://terminology.hl7.org/CodeSystem/condition-ver-status",
          "code": "refuted",
          "display": "Refuted"
        }, {
          "system": "http://snomed.info/sct",
          "code": "410594000",
          "display": "Definitely NOT present (qualifier value)"
        } ]
      },
      "category": [ {
        "coding": [ {
          "system": "http://snomed.info/sct",
          "code": "418112009",
          "display": "Pulmonary medicine (qualifier value)"
        } ]
      } ],
      "code": {
        "coding": [ {
          "system": "http://fhir.de/CodeSystem/dimdi/icd-10-gm",
          "version": "2021",
          "code": "G47.31"
        }, {
          "system": "http://snomed.info/sct",
          "code": "78275009"
        } ]
      },
      "subject": {
        "reference": "Patient/fb7433249e2539171013c8a104cb96cc85b44bd6fedaeff0cd61d2c73a3402f4"
      },
      "encounter": {
        "reference": "Encounter/b50ca6bae511fdcb46808a467678c1ae0619e72c01b44162615d25408e65047e"
      },
      "_recordedDate": {
        "extension": [ {
          "url": "http://hl7.org/fhir/StructureDefinition/data-absent-reason",
          "valueCode": "unknown"
        } ]
      }
    },
    "request": {
      "method": "POST",
      "url": "Condition",
      "ifNoneExist": "identifier=https://mein.krankenhaus.de/fhir/NamingSystem/conditionId|00b7772adce88f614bc3f0fd640e9491d56ac9cf09f04396e0102b84758ee68c"
    }
  }, {
    "fullUrl": "Condition/02771a7edcbe6b485081c14d750f49639aeb7d35f0d47d053137c4ec7df52182",
    "resource": {
      "resourceType": "Condition",
      "meta": {
        "profile": [ "https://www.netzwerk-universitaetsmedizin.de/fhir/StructureDefinition/chronic-lung-diseases" ]
      },
      "modifierExtension": [ {
        "url": "https://www.netzwerk-universitaetsmedizin.de/fhir/StructureDefinition/uncertainty-of-presence",
        "valueCodeableConcept": {
          "coding": [ {
            "system": "http://snomed.info/sct",
            "code": "261665006",
            "display": "Unknown (qualifier value)"
          } ],
          "text": "Presence unknown."
        }
      } ],
      "identifier": [ {
        "system": "https://mein.krankenhaus.de/fhir/NamingSystem/conditionId",
        "value": "2236f2bbfb24ba46032b43674cf421a1931f04ab4edabd8bd4b918276e6a9680"
      } ],
      "category": [ {
        "coding": [ {
          "system": "http://snomed.info/sct",
          "code": "418112009",
          "display": "Pulmonary medicine (qualifier value)"
        } ]
      } ],
      "code": {
        "coding": [ {
          "system": "http://fhir.de/CodeSystem/dimdi/icd-10-gm",
          "version": "2021",
          "code": "E84.9"
        }, {
          "system": "http://snomed.info/sct",
          "code": "190905008"
        } ]
      },
      "subject": {
        "reference": "Patient/fb7433249e2539171013c8a104cb96cc85b44bd6fedaeff0cd61d2c73a3402f4"
      },
      "encounter": {
        "reference": "Encounter/b50ca6bae511fdcb46808a467678c1ae0619e72c01b44162615d25408e65047e"
      },
      "_recordedDate": {
        "extension": [ {
          "url": "http://hl7.org/fhir/StructureDefinition/data-absent-reason",
          "valueCode": "unknown"
        } ]
      }
    },
    "request": {
      "method": "POST",
      "url": "Condition",
      "ifNoneExist": "identifier=https://mein.krankenhaus.de/fhir/NamingSystem/conditionId|02771a7edcbe6b485081c14d750f49639aeb7d35f0d47d053137c4ec7df52182"
    }
  }, {
    "fullUrl": "Condition/717b649bc80c803d40657206c7acf7b225ad208a923026bc82e1354cc7be94c0",
    "resource": {
      "resourceType": "Condition",
      "meta": {
        "profile": [ "https://www.netzwerk-universitaetsmedizin.de/fhir/StructureDefinition/chronic-lung-diseases" ]
      },
      "modifierExtension": [ {
        "url": "https://www.netzwerk-universitaetsmedizin.de/fhir/StructureDefinition/uncertainty-of-presence",
        "valueCodeableConcept": {
          "coding": [ {
            "system": "http://snomed.info/sct",
            "code": "261665006",
            "display": "Unknown (qualifier value)"
          } ],
          "text": "Presence unknown."
        }
      } ],
      "identifier": [ {
        "system": "https://mein.krankenhaus.de/fhir/NamingSystem/conditionId",
        "value": "194c5d0a4b04e5684c0d6f5d04ebca5714b422a018edb4517c2c7089d025bf7c"
      } ],
      "category": [ {
        "coding": [ {
          "system": "http://snomed.info/sct",
          "code": "418112009",
          "display": "Pulmonary medicine (qualifier value)"
        } ]
      } ],
      "code": {
        "coding": [ {
          "system": "http://snomed.info/sct",
          "code": "106048009"
        } ]
      },
      "subject": {
        "reference": "Patient/fb7433249e2539171013c8a104cb96cc85b44bd6fedaeff0cd61d2c73a3402f4"
      },
      "encounter": {
        "reference": "Encounter/b50ca6bae511fdcb46808a467678c1ae0619e72c01b44162615d25408e65047e"
      },
      "_recordedDate": {
        "extension": [ {
          "url": "http://hl7.org/fhir/StructureDefinition/data-absent-reason",
          "valueCode": "unknown"
        } ]
      }
    },
    "request": {
      "method": "POST",
      "url": "Condition",
      "ifNoneExist": "identifier=https://mein.krankenhaus.de/fhir/NamingSystem/conditionId|717b649bc80c803d40657206c7acf7b225ad208a923026bc82e1354cc7be94c0"
    }
  }, {
    "fullUrl": "Condition/75695c68cce9262e9f29a6725e5b7f8e6ffab8038f53c5155e445959178644d5",
    "resource": {
      "resourceType": "Condition",
      "meta": {
        "profile": [ "https://www.netzwerk-universitaetsmedizin.de/fhir/StructureDefinition/chronic-liver-diseases" ]
      },
      "modifierExtension": [ {
        "url": "https://www.netzwerk-universitaetsmedizin.de/fhir/StructureDefinition/uncertainty-of-presence",
        "valueCodeableConcept": {
          "coding": [ {
            "system": "http://snomed.info/sct",
            "code": "261665006",
            "display": "Unknown (qualifier value)"
          } ],
          "text": "Presence unknown."
        }
      } ],
      "identifier": [ {
        "system": "https://mein.krankenhaus.de/fhir/NamingSystem/conditionId",
        "value": "58f17f48c2ee7f0b81f8be1de261db135cfbd1f1a2d378a0263074c1c198aaa2"
      } ],
      "category": [ {
        "coding": [ {
          "system": "http://snomed.info/sct",
          "code": "408472002",
          "display": "Hepatology (qualifier value)"
        } ]
      } ],
      "code": {
        "coding": [ {
          "system": "http://fhir.de/CodeSystem/dimdi/icd-10-gm",
          "version": "2021",
          "code": "K76.0"
        }, {
          "system": "http://snomed.info/sct",
          "code": "197321007"
        } ]
      },
      "subject": {
        "reference": "Patient/fb7433249e2539171013c8a104cb96cc85b44bd6fedaeff0cd61d2c73a3402f4"
      },
      "encounter": {
        "reference": "Encounter/b50ca6bae511fdcb46808a467678c1ae0619e72c01b44162615d25408e65047e"
      },
      "_recordedDate": {
        "extension": [ {
          "url": "http://hl7.org/fhir/StructureDefinition/data-absent-reason",
          "valueCode": "unknown"
        } ]
      }
    },
    "request": {
      "method": "POST",
      "url": "Condition",
      "ifNoneExist": "identifier=https://mein.krankenhaus.de/fhir/NamingSystem/conditionId|75695c68cce9262e9f29a6725e5b7f8e6ffab8038f53c5155e445959178644d5"
    }
  }, {
    "fullUrl": "Condition/571af44978d4018207b3eda243a5047680869629e30f7e67f1e2c9c18242adad",
    "resource": {
      "resourceType": "Condition",
      "meta": {
        "profile": [ "https://www.netzwerk-universitaetsmedizin.de/fhir/StructureDefinition/chronic-liver-diseases" ]
      },
      "modifierExtension": [ {
        "url": "https://www.netzwerk-universitaetsmedizin.de/fhir/StructureDefinition/uncertainty-of-presence",
        "valueCodeableConcept": {
          "coding": [ {
            "system": "http://snomed.info/sct",
            "code": "261665006",
            "display": "Unknown (qualifier value)"
          } ],
          "text": "Presence unknown."
        }
      } ],
      "identifier": [ {
        "system": "https://mein.krankenhaus.de/fhir/NamingSystem/conditionId",
        "value": "5b0b1e4b16fa81ccacd750f218d79c917e9f8917dfdd3ad567f40124adfee7ce"
      } ],
      "category": [ {
        "coding": [ {
          "system": "http://snomed.info/sct",
          "code": "408472002",
          "display": "Hepatology (qualifier value)"
        } ]
      } ],
      "code": {
        "coding": [ {
          "system": "http://fhir.de/CodeSystem/dimdi/icd-10-gm",
          "version": "2021",
          "code": "K74.6"
        }, {
          "system": "http://snomed.info/sct",
          "code": "19943007"
        } ]
      },
      "subject": {
        "reference": "Patient/fb7433249e2539171013c8a104cb96cc85b44bd6fedaeff0cd61d2c73a3402f4"
      },
      "encounter": {
        "reference": "Encounter/b50ca6bae511fdcb46808a467678c1ae0619e72c01b44162615d25408e65047e"
      },
      "_recordedDate": {
        "extension": [ {
          "url": "http://hl7.org/fhir/StructureDefinition/data-absent-reason",
          "valueCode": "unknown"
        } ]
      }
    },
    "request": {
      "method": "POST",
      "url": "Condition",
      "ifNoneExist": "identifier=https://mein.krankenhaus.de/fhir/NamingSystem/conditionId|571af44978d4018207b3eda243a5047680869629e30f7e67f1e2c9c18242adad"
    }
  }, {
    "fullUrl": "Condition/b2ec0deacb93237d889002dd35486f2d4e65115b01cbdb37da4353d1f0575b51",
    "resource": {
      "resourceType": "Condition",
      "meta": {
        "profile": [ "https://www.netzwerk-universitaetsmedizin.de/fhir/StructureDefinition/chronic-liver-diseases" ]
      },
      "identifier": [ {
        "system": "https://mein.krankenhaus.de/fhir/NamingSystem/conditionId",
        "value": "07d6cda2de3923cef52cd71587d44b56acaa24d99c28777f8c087d0d018f6854"
      } ],
      "clinicalStatus": {
        "coding": [ {
          "system": "http://terminology.hl7.org/CodeSystem/condition-clinical",
          "code": "active",
          "display": "Active"
        } ]
      },
      "verificationStatus": {
        "coding": [ {
          "system": "http://terminology.hl7.org/CodeSystem/condition-ver-status",
          "code": "confirmed",
          "display": "Confirmed"
        }, {
          "system": "http://snomed.info/sct",
          "code": "410605003",
          "display": "Confirmed present (qualifier value)"
        } ]
      },
      "category": [ {
        "coding": [ {
          "system": "http://snomed.info/sct",
          "code": "408472002",
          "display": "Hepatology (qualifier value)"
        } ]
      } ],
      "code": {
        "coding": [ {
          "system": "http://fhir.de/CodeSystem/dimdi/icd-10-gm",
          "version": "2021",
          "code": "B18.9"
        }, {
          "system": "http://snomed.info/sct",
          "code": "10295004"
        } ]
      },
      "subject": {
        "reference": "Patient/fb7433249e2539171013c8a104cb96cc85b44bd6fedaeff0cd61d2c73a3402f4"
      },
      "encounter": {
        "reference": "Encounter/b50ca6bae511fdcb46808a467678c1ae0619e72c01b44162615d25408e65047e"
      },
      "_recordedDate": {
        "extension": [ {
          "url": "http://hl7.org/fhir/StructureDefinition/data-absent-reason",
          "valueCode": "unknown"
        } ]
      }
    },
    "request": {
      "method": "POST",
      "url": "Condition",
      "ifNoneExist": "identifier=https://mein.krankenhaus.de/fhir/NamingSystem/conditionId|b2ec0deacb93237d889002dd35486f2d4e65115b01cbdb37da4353d1f0575b51"
    }
  }, {
    "fullUrl": "Condition/7b28c1e242fbf2ce54e98da0479b02cca866b427c2697a0ea3369217e06da0bd",
    "resource": {
      "resourceType": "Condition",
      "meta": {
        "profile": [ "https://www.netzwerk-universitaetsmedizin.de/fhir/StructureDefinition/chronic-liver-diseases" ]
      },
      "identifier": [ {
        "system": "https://mein.krankenhaus.de/fhir/NamingSystem/conditionId",
        "value": "b197315c696d97dc1fdd8bb5340f609ce364c7370bd95f86262feedf6632ac46"
      } ],
      "clinicalStatus": {
        "coding": [ {
          "system": "http://terminology.hl7.org/CodeSystem/condition-clinical",
          "code": "active",
          "display": "Active"
        } ]
      },
      "verificationStatus": {
        "coding": [ {
          "system": "http://terminology.hl7.org/CodeSystem/condition-ver-status",
          "code": "confirmed",
          "display": "Confirmed"
        }, {
          "system": "http://snomed.info/sct",
          "code": "410605003",
          "display": "Confirmed present (qualifier value)"
        } ]
      },
      "category": [ {
        "coding": [ {
          "system": "http://snomed.info/sct",
          "code": "408472002",
          "display": "Hepatology (qualifier value)"
        } ]
      } ],
      "code": {
        "coding": [ {
          "system": "http://snomed.info/sct",
          "code": "235890007"
        } ]
      },
      "subject": {
        "reference": "Patient/fb7433249e2539171013c8a104cb96cc85b44bd6fedaeff0cd61d2c73a3402f4"
      },
      "encounter": {
        "reference": "Encounter/b50ca6bae511fdcb46808a467678c1ae0619e72c01b44162615d25408e65047e"
      },
      "_recordedDate": {
        "extension": [ {
          "url": "http://hl7.org/fhir/StructureDefinition/data-absent-reason",
          "valueCode": "unknown"
        } ]
      }
    },
    "request": {
      "method": "POST",
      "url": "Condition",
      "ifNoneExist": "identifier=https://mein.krankenhaus.de/fhir/NamingSystem/conditionId|7b28c1e242fbf2ce54e98da0479b02cca866b427c2697a0ea3369217e06da0bd"
    }
  }, {
    "fullUrl": "Condition/150268f832c54ed552179eaf071b03d6b250f55d74e7be693e9392f29adffd88",
    "resource": {
      "resourceType": "Condition",
      "meta": {
        "profile": [ "https://www.netzwerk-universitaetsmedizin.de/fhir/StructureDefinition/chronic-liver-diseases" ]
      },
      "identifier": [ {
        "system": "https://mein.krankenhaus.de/fhir/NamingSystem/conditionId",
        "value": "e70a9431906ae54b13b2de23b69899650c3ce0074bbcbec0d0922df5ada52ef5"
      } ],
      "verificationStatus": {
        "coding": [ {
          "system": "http://terminology.hl7.org/CodeSystem/condition-ver-status",
          "code": "refuted",
          "display": "Refuted"
        }, {
          "system": "http://snomed.info/sct",
          "code": "410594000",
          "display": "Definitely NOT present (qualifier value)"
        } ]
      },
      "category": [ {
        "coding": [ {
          "system": "http://snomed.info/sct",
          "code": "408472002",
          "display": "Hepatology (qualifier value)"
        } ]
      } ],
      "code": {
        "coding": [ {
          "system": "http://fhir.de/CodeSystem/dimdi/icd-10-gm",
          "version": "2021",
          "code": "K76.9"
        }, {
          "system": "http://snomed.info/sct",
          "code": "328383001"
        } ]
      },
      "subject": {
        "reference": "Patient/fb7433249e2539171013c8a104cb96cc85b44bd6fedaeff0cd61d2c73a3402f4"
      },
      "encounter": {
        "reference": "Encounter/b50ca6bae511fdcb46808a467678c1ae0619e72c01b44162615d25408e65047e"
      },
      "_recordedDate": {
        "extension": [ {
          "url": "http://hl7.org/fhir/StructureDefinition/data-absent-reason",
          "valueCode": "unknown"
        } ]
      }
    },
    "request": {
      "method": "POST",
      "url": "Condition",
      "ifNoneExist": "identifier=https://mein.krankenhaus.de/fhir/NamingSystem/conditionId|150268f832c54ed552179eaf071b03d6b250f55d74e7be693e9392f29adffd88"
    }
  }, {
    "fullUrl": "Condition/e186d9140f67e692607f62bbf430e53b6561e8e95bb0b6d97ce60c589dd84ef1",
    "resource": {
      "resourceType": "Condition",
      "meta": {
        "profile": [ "https://www.netzwerk-universitaetsmedizin.de/fhir/StructureDefinition/diabetes-mellitus" ]
      },
      "modifierExtension": [ {
        "url": "https://www.netzwerk-universitaetsmedizin.de/fhir/StructureDefinition/uncertainty-of-presence",
        "valueCodeableConcept": {
          "coding": [ {
            "system": "http://snomed.info/sct",
            "code": "261665006",
            "display": "Unknown (qualifier value)"
          } ],
          "text": "Presence unknown."
        }
      } ],
      "identifier": [ {
        "system": "https://mein.krankenhaus.de/fhir/NamingSystem/conditionId",
        "value": "c4e787d6ec5f2d8fadb0fd04b5e36864e332f46facf7afaf3a0a114282918c3f"
      } ],
      "category": [ {
        "coding": [ {
          "system": "http://snomed.info/sct",
          "code": "408475000",
          "display": "Diabetic medicine (qualifier value)"
        } ]
      } ],
      "code": {
        "coding": [ {
          "system": "http://fhir.de/CodeSystem/dimdi/icd-10-gm",
          "version": "2021",
          "code": "E14"
        }, {
          "system": "http://snomed.info/sct",
          "code": "73211009"
        } ]
      },
      "subject": {
        "reference": "Patient/fb7433249e2539171013c8a104cb96cc85b44bd6fedaeff0cd61d2c73a3402f4"
      },
      "encounter": {
        "reference": "Encounter/b50ca6bae511fdcb46808a467678c1ae0619e72c01b44162615d25408e65047e"
      },
      "_recordedDate": {
        "extension": [ {
          "url": "http://hl7.org/fhir/StructureDefinition/data-absent-reason",
          "valueCode": "unknown"
        } ]
      }
    },
    "request": {
      "method": "POST",
      "url": "Condition",
      "ifNoneExist": "identifier=https://mein.krankenhaus.de/fhir/NamingSystem/conditionId|e186d9140f67e692607f62bbf430e53b6561e8e95bb0b6d97ce60c589dd84ef1"
    }
  }, {
    "fullUrl": "Condition/cc3a4884c128d3ca5715df859c482ac21b03ed48ba53886b4756a900448da494",
    "resource": {
      "resourceType": "Condition",
      "meta": {
        "profile": [ "https://www.netzwerk-universitaetsmedizin.de/fhir/StructureDefinition/malignant-neoplastic-disease" ]
      },
      "identifier": [ {
        "system": "https://mein.krankenhaus.de/fhir/NamingSystem/conditionId",
        "value": "e885d1d981277a9c8426b7abb0d9670ff83dfe20424b0dbd38c9e4fd13bb1385"
      } ],
      "verificationStatus": {
        "coding": [ {
          "system": "http://terminology.hl7.org/CodeSystem/condition-ver-status",
          "code": "refuted",
          "display": "Refuted"
        }, {
          "system": "http://snomed.info/sct",
          "code": "410594000",
          "display": "Definitely NOT present (qualifier value)"
        } ]
      },
      "category": [ {
        "coding": [ {
          "system": "http://snomed.info/sct",
          "code": "394593009",
          "display": "Medical oncology (qualifier value)"
        } ]
      } ],
      "code": {
        "coding": [ {
          "system": "http://fhir.de/CodeSystem/dimdi/icd-10-gm",
          "version": "2021",
          "code": "C80.9"
        }, {
          "system": "http://snomed.info/sct",
          "code": "363346000"
        } ]
      },
      "subject": {
        "reference": "Patient/fb7433249e2539171013c8a104cb96cc85b44bd6fedaeff0cd61d2c73a3402f4"
      },
      "encounter": {
        "reference": "Encounter/b50ca6bae511fdcb46808a467678c1ae0619e72c01b44162615d25408e65047e"
      },
      "_recordedDate": {
        "extension": [ {
          "url": "http://hl7.org/fhir/StructureDefinition/data-absent-reason",
          "valueCode": "unknown"
        } ]
      }
    },
    "request": {
      "method": "POST",
      "url": "Condition",
      "ifNoneExist": "identifier=https://mein.krankenhaus.de/fhir/NamingSystem/conditionId|cc3a4884c128d3ca5715df859c482ac21b03ed48ba53886b4756a900448da494"
    }
  }, {
    "fullUrl": "Condition/08dbeffe2afcb3175aafa589d1826e442869de445470f32cf7dfc106755d0abf",
    "resource": {
      "resourceType": "Condition",
      "meta": {
        "profile": [ "https://www.netzwerk-universitaetsmedizin.de/fhir/StructureDefinition/chronic-kidney-diseases" ]
      },
      "identifier": [ {
        "system": "https://mein.krankenhaus.de/fhir/NamingSystem/conditionId",
        "value": "afeaf5a6ee822cb606ea488873566971da1582e7014913fb04fc1d9cea22ddf3"
      } ],
      "verificationStatus": {
        "coding": [ {
          "system": "http://terminology.hl7.org/CodeSystem/condition-ver-status",
          "code": "refuted",
          "display": "Refuted"
        }, {
          "system": "http://snomed.info/sct",
          "code": "410594000",
          "display": "Definitely NOT present (qualifier value)"
        } ]
      },
      "category": [ {
        "coding": [ {
          "system": "http://snomed.info/sct",
          "code": "394589003",
          "display": "Nephrology (qualifier value)"
        } ]
      } ],
      "code": {
        "coding": [ {
          "system": "http://fhir.de/CodeSystem/dimdi/icd-10-gm",
          "version": "2021",
          "code": "N18.9"
        }, {
          "system": "http://snomed.info/sct",
          "code": "709044004"
        } ]
      },
      "subject": {
        "reference": "Patient/fb7433249e2539171013c8a104cb96cc85b44bd6fedaeff0cd61d2c73a3402f4"
      },
      "encounter": {
        "reference": "Encounter/b50ca6bae511fdcb46808a467678c1ae0619e72c01b44162615d25408e65047e"
      },
      "_recordedDate": {
        "extension": [ {
          "url": "http://hl7.org/fhir/StructureDefinition/data-absent-reason",
          "valueCode": "unknown"
        } ]
      }
    },
    "request": {
      "method": "POST",
      "url": "Condition",
      "ifNoneExist": "identifier=https://mein.krankenhaus.de/fhir/NamingSystem/conditionId|08dbeffe2afcb3175aafa589d1826e442869de445470f32cf7dfc106755d0abf"
    }
  }, {
    "fullUrl": "Condition/e805226927b94d4f87ca615b5cbe4b5edc6f37e57aeaac82eecd03aae8cbabee",
    "resource": {
      "resourceType": "Condition",
      "meta": {
        "profile": [ "https://www.netzwerk-universitaetsmedizin.de/fhir/StructureDefinition/gastrointestinal-ulcers" ]
      },
      "modifierExtension": [ {
        "url": "https://www.netzwerk-universitaetsmedizin.de/fhir/StructureDefinition/uncertainty-of-presence",
        "valueCodeableConcept": {
          "coding": [ {
            "system": "http://snomed.info/sct",
            "code": "261665006",
            "display": "Unknown (qualifier value)"
          } ],
          "text": "Presence unknown."
        }
      } ],
      "identifier": [ {
        "system": "https://mein.krankenhaus.de/fhir/NamingSystem/conditionId",
        "value": "befaf1f9d5aa32439eab284a79a76b358e78cdfb9d00fdc03111a50c65d60687"
      } ],
      "category": [ {
        "coding": [ {
          "system": "http://snomed.info/sct",
          "code": "394584008",
          "display": "Gastroenterology (qualifier value))"
        } ]
      } ],
      "code": {
        "coding": [ {
          "system": "http://fhir.de/CodeSystem/dimdi/icd-10-gm",
          "version": "2021",
          "code": "K28"
        }, {
          "system": "http://snomed.info/sct",
          "code": "40845000"
        } ]
      },
      "subject": {
        "reference": "Patient/fb7433249e2539171013c8a104cb96cc85b44bd6fedaeff0cd61d2c73a3402f4"
      },
      "encounter": {
        "reference": "Encounter/b50ca6bae511fdcb46808a467678c1ae0619e72c01b44162615d25408e65047e"
      },
      "_recordedDate": {
        "extension": [ {
          "url": "http://hl7.org/fhir/StructureDefinition/data-absent-reason",
          "valueCode": "unknown"
        } ]
      }
    },
    "request": {
      "method": "POST",
      "url": "Condition",
      "ifNoneExist": "identifier=https://mein.krankenhaus.de/fhir/NamingSystem/conditionId|e805226927b94d4f87ca615b5cbe4b5edc6f37e57aeaac82eecd03aae8cbabee"
    }
  }, {
    "fullUrl": "Observation/ed6aff0d35622ef7d9c6f68ed654ec5bd5c3330169d9aed19d55ca10f9c2b7bb",
    "resource": {
      "resourceType": "Observation",
      "meta": {
        "profile": [ "https://www.netzwerk-universitaetsmedizin.de/fhir/StructureDefinition/smoking-status" ]
      },
      "identifier": [ {
        "system": "https://mein.krankenhaus.de/fhir/NamingSystem/observationId",
        "value": "671ae294548e47b55cc4d88de6b575e7149138edadcb1808b09c13017e64822a"
      } ],
      "status": "final",
      "category": [ {
        "coding": [ {
          "system": "http://terminology.hl7.org/CodeSystem/observation-category",
          "code": "social-history",
          "display": "Social History"
        } ]
      } ],
      "code": {
        "coding": [ {
          "system": "http://loinc.org",
          "code": "72166-2"
        } ]
      },
      "subject": {
        "reference": "Patient/fb7433249e2539171013c8a104cb96cc85b44bd6fedaeff0cd61d2c73a3402f4"
      },
      "encounter": {
        "reference": "Encounter/b50ca6bae511fdcb46808a467678c1ae0619e72c01b44162615d25408e65047e"
      },
      "_effectiveDateTime": {
        "extension": [ {
          "url": "http://hl7.org/fhir/StructureDefinition/data-absent-reason",
          "valueCode": "unknown"
        } ]
      },
      "valueCodeableConcept": {
        "coding": [ {
          "system": "http://loinc.org",
          "code": "LA18980-5"
        } ]
      }
    },
    "request": {
      "method": "POST",
      "url": "Observation",
      "ifNoneExist": "identifier=https://mein.krankenhaus.de/fhir/NamingSystem/observationId|ed6aff0d35622ef7d9c6f68ed654ec5bd5c3330169d9aed19d55ca10f9c2b7bb"
    }
  }, {
    "fullUrl": "Procedure/c65218d310e3c3053d583d2383e1e5e6d8c36a84a17d5904d2fa1b0009cdb382",
    "resource": {
      "resourceType": "Procedure",
      "meta": {
        "profile": [ "https://www.netzwerk-universitaetsmedizin.de/fhir/StructureDefinition/respiratory-therapies" ]
      },
      "identifier": [ {
        "system": "https://mein.krankenhaus.de/fhir/NamingSystem/procedureId",
        "value": "10ec6bbbace3accbaf93aabe99bc7a1dbc4e413269f8572397a917d7dc096a3c"
      } ],
      "status": "in-progress",
      "category": {
        "coding": [ {
          "system": "http://snomed.info/sct",
          "code": "277132007",
          "display": "Therapeutic procedure (procedure)"
        } ]
      },
      "code": {
        "coding": [ {
          "system": "http://snomed.info/sct",
          "code": "53950000"
        } ]
      },
      "subject": {
        "reference": "Patient/fb7433249e2539171013c8a104cb96cc85b44bd6fedaeff0cd61d2c73a3402f4"
      },
      "encounter": {
        "reference": "Encounter/b50ca6bae511fdcb46808a467678c1ae0619e72c01b44162615d25408e65047e"
      },
      "_performedDateTime": {
        "extension": [ {
          "url": "http://hl7.org/fhir/StructureDefinition/data-absent-reason",
          "valueCode": "unknown"
        } ]
      }
    },
    "request": {
      "method": "POST",
      "url": "Procedure",
      "ifNoneExist": "identifier=https://mein.krankenhaus.de/fhir/NamingSystem/procedureId|c65218d310e3c3053d583d2383e1e5e6d8c36a84a17d5904d2fa1b0009cdb382"
    }
  }, {
    "fullUrl": "Immunization/d451376be6996765114f1da6fa9c5edb4c5ee043f05782684ab85f4dc64f99b1",
    "resource": {
      "resourceType": "Immunization",
      "meta": {
        "profile": [ "https://www.netzwerk-universitaetsmedizin.de/fhir/StructureDefinition/immunization" ]
      },
      "identifier": [ {
        "system": "https://mein.krankenhaus.de/fhir/NamingSystem/immunizationId",
        "value": "c39da815ae519b8dbce025bcdf2fe59803611b525ee223b2f9cae9f681533647"
      } ],
      "status": "not-done",
      "vaccineCode": {
        "coding": [ {
          "system": "http://snomed.info/sct",
          "code": "836377006"
        } ]
      },
      "patient": {
        "reference": "Patient/fb7433249e2539171013c8a104cb96cc85b44bd6fedaeff0cd61d2c73a3402f4"
      },
      "encounter": {
        "reference": "Encounter/b50ca6bae511fdcb46808a467678c1ae0619e72c01b44162615d25408e65047e"
      },
      "_occurrenceDateTime": {
        "extension": [ {
          "url": "http://hl7.org/fhir/StructureDefinition/data-absent-reason",
          "valueCode": "unknown"
        } ]
      },
      "protocolApplied": [ {
        "targetDisease": [ {
          "coding": [ {
            "system": "http://snomed.info/sct",
            "code": "6142004"
          } ]
        } ],
        "_doseNumberString": {
          "extension": [ {
            "url": "http://hl7.org/fhir/StructureDefinition/data-absent-reason",
            "valueCode": "unknown"
          } ]
        }
      } ]
    },
    "request": {
      "method": "POST",
      "url": "Immunization",
      "ifNoneExist": "identifier=https://mein.krankenhaus.de/fhir/NamingSystem/immunizationId|d451376be6996765114f1da6fa9c5edb4c5ee043f05782684ab85f4dc64f99b1"
    }
  }, {
    "fullUrl": "Immunization/5f1de3726dcff5ee730c6118096dc8782c8b1f01a8284fab8dce4e80267d0027",
    "resource": {
      "resourceType": "Immunization",
      "meta": {
        "profile": [ "https://www.netzwerk-universitaetsmedizin.de/fhir/StructureDefinition/immunization" ]
      },
      "identifier": [ {
        "system": "https://mein.krankenhaus.de/fhir/NamingSystem/immunizationId",
        "value": "4a3446604686bae2fab5e6f287c33fed10b8f50a09557274ea852eeb9b88963d"
      } ],
      "status": "completed",
      "vaccineCode": {
        "coding": [ {
          "system": "http://snomed.info/sct",
          "code": "836398006"
        } ]
      },
      "patient": {
        "reference": "Patient/fb7433249e2539171013c8a104cb96cc85b44bd6fedaeff0cd61d2c73a3402f4"
      },
      "encounter": {
        "reference": "Encounter/b50ca6bae511fdcb46808a467678c1ae0619e72c01b44162615d25408e65047e"
      },
      "occurrenceDateTime": "2020-01-11",
      "protocolApplied": [ {
        "targetDisease": [ {
          "coding": [ {
            "system": "http://snomed.info/sct",
            "code": "16814004"
          } ]
        } ],
        "_doseNumberString": {
          "extension": [ {
            "url": "http://hl7.org/fhir/StructureDefinition/data-absent-reason",
            "valueCode": "unknown"
          } ]
        }
      } ]
    },
    "request": {
      "method": "POST",
      "url": "Immunization",
      "ifNoneExist": "identifier=https://mein.krankenhaus.de/fhir/NamingSystem/immunizationId|5f1de3726dcff5ee730c6118096dc8782c8b1f01a8284fab8dce4e80267d0027"
    }
  }, {
    "fullUrl": "Immunization/cb8e7c0a4c8d2b30e321de909234f601a108f6134ac640c503dbe417576fa009",
    "resource": {
      "resourceType": "Immunization",
      "meta": {
        "profile": [ "https://www.netzwerk-universitaetsmedizin.de/fhir/StructureDefinition/immunization" ]
      },
      "identifier": [ {
        "system": "https://mein.krankenhaus.de/fhir/NamingSystem/immunizationId",
        "value": "d1367021f81df99934965e54085579b04bde7e5ed9ef24a577b98d901c15fd06"
      } ],
      "status": "completed",
      "vaccineCode": {
        "coding": [ {
          "system": "http://snomed.info/sct",
          "code": "836402002"
        } ]
      },
      "patient": {
        "reference": "Patient/fb7433249e2539171013c8a104cb96cc85b44bd6fedaeff0cd61d2c73a3402f4"
      },
      "encounter": {
        "reference": "Encounter/b50ca6bae511fdcb46808a467678c1ae0619e72c01b44162615d25408e65047e"
      },
      "occurrenceDateTime": "2020-03-05",
      "protocolApplied": [ {
        "targetDisease": [ {
          "coding": [ {
            "system": "http://snomed.info/sct",
            "code": "56717001"
          } ]
        } ],
        "_doseNumberString": {
          "extension": [ {
            "url": "http://hl7.org/fhir/StructureDefinition/data-absent-reason",
            "valueCode": "unknown"
          } ]
        }
      } ]
    },
    "request": {
      "method": "POST",
      "url": "Immunization",
      "ifNoneExist": "identifier=https://mein.krankenhaus.de/fhir/NamingSystem/immunizationId|cb8e7c0a4c8d2b30e321de909234f601a108f6134ac640c503dbe417576fa009"
    }
  }, {
    "fullUrl": "Immunization/9c277e02fecc0e9f438f6a068b21e9901eb1e1de346f71c2d128e14a244df296",
    "resource": {
      "resourceType": "Immunization",
      "meta": {
        "profile": [ "https://www.netzwerk-universitaetsmedizin.de/fhir/StructureDefinition/immunization" ]
      },
      "identifier": [ {
        "system": "https://mein.krankenhaus.de/fhir/NamingSystem/immunizationId",
        "value": "9b3ffd1f002a37f2ba6532a17acfbd4e29346c6374589ac7d637f1c90a63f71b"
      } ],
      "status": "not-done",
      "vaccineCode": {
        "coding": [ {
          "system": "http://hl7.org/fhir/uv/ips/CodeSystem/absent-unknown-uv-ips",
          "code": "no-known-immunizations",
          "display": "vaccineCode unknown"
        } ]
      },
      "patient": {
        "reference": "Patient/fb7433249e2539171013c8a104cb96cc85b44bd6fedaeff0cd61d2c73a3402f4"
      },
      "encounter": {
        "reference": "Encounter/b50ca6bae511fdcb46808a467678c1ae0619e72c01b44162615d25408e65047e"
      },
      "_occurrenceDateTime": {
        "extension": [ {
          "url": "http://hl7.org/fhir/StructureDefinition/data-absent-reason",
          "valueCode": "unknown"
        } ]
      },
      "protocolApplied": [ {
        "targetDisease": [ {
          "coding": [ {
            "system": "http://snomed.info/sct",
            "code": "64572001",
            "display": "targetDisease unknown"
          } ]
        } ],
        "_doseNumberString": {
          "extension": [ {
            "url": "http://hl7.org/fhir/StructureDefinition/data-absent-reason",
            "valueCode": "unknown"
          } ]
        }
      } ]
    },
    "request": {
      "method": "POST",
      "url": "Immunization",
      "ifNoneExist": "identifier=https://mein.krankenhaus.de/fhir/NamingSystem/immunizationId|9c277e02fecc0e9f438f6a068b21e9901eb1e1de346f71c2d128e14a244df296"
    }
  }, {
    "fullUrl": "Consent/a69fbad3c7a78ae9ca2cb4e33cee4962b20352c8cfda90ea1939538c2957f31c",
    "resource": {
      "resourceType": "Consent",
      "meta": {
        "profile": [ "https://www.netzwerk-universitaetsmedizin.de/fhir/StructureDefinition/do-not-resuscitate-order" ]
      },
      "identifier": [ {
        "system": "https://mein.krankenhaus.de/fhir/NamingSystem/consentId",
        "value": "0b206ee28cb596f2035de0dad02270261587cac5dab77dff59f2ddf79df6dc35"
      } ],
      "status": "active",
      "scope": {
        "coding": [ {
          "system": "http://terminology.hl7.org/CodeSystem/consentscope",
          "code": "adr",
          "display": "Advanced Care Directive"
        } ]
      },
      "category": [ {
        "coding": [ {
          "system": "http://terminology.hl7.org/CodeSystem/consentcategorycodes",
          "code": "dnr",
          "display": "Do Not Resuscitate"
        } ]
      } ],
      "patient": {
        "reference": "Patient/fb7433249e2539171013c8a104cb96cc85b44bd6fedaeff0cd61d2c73a3402f4"
      },
      "policy": [ {
        "uri": "https://www.aerzteblatt.de/archiv/65440/DNR-Anordnungen-Das-fehlende-Bindeglied"
      } ],
      "provision": {
        "code": [ {
          "coding": [ {
            "system": "http://snomed.info/sct",
            "code": "304253006"
          } ]
        } ]
      }
    },
    "request": {
      "method": "POST",
      "url": "Consent",
      "ifNoneExist": "identifier=https://mein.krankenhaus.de/fhir/NamingSystem/consentId|a69fbad3c7a78ae9ca2cb4e33cee4962b20352c8cfda90ea1939538c2957f31c"
    }
  }, {
    "fullUrl": "Observation/cb41c70364de6e77404c3d5ba0161787a8c0119315245bf28ff355f3fcd6822c",
    "resource": {
      "resourceType": "Observation",
      "meta": {
        "profile": [ "https://www.netzwerk-universitaetsmedizin.de/fhir/StructureDefinition/sex-assigned-at-birth" ]
      },
      "identifier": [ {
        "system": "https://mein.krankenhaus.de/fhir/NamingSystem/observationId",
        "value": "989d09ac85fde26f1e5bfbd13d73e7306106d0712a7b3c8d71b009d7ef793966"
      } ],
      "status": "final",
      "category": [ {
        "coding": [ {
          "system": "http://terminology.hl7.org/CodeSystem/observation-category",
          "code": "social-history",
          "display": "Social History"
        } ]
      } ],
      "code": {
        "coding": [ {
          "system": "http://loinc.org",
          "code": "76689-9"
        } ]
      },
      "subject": {
        "reference": "Patient/fb7433249e2539171013c8a104cb96cc85b44bd6fedaeff0cd61d2c73a3402f4"
      },
      "encounter": {
        "reference": "Encounter/b50ca6bae511fdcb46808a467678c1ae0619e72c01b44162615d25408e65047e"
      },
      "_effectiveDateTime": {
        "extension": [ {
          "url": "http://hl7.org/fhir/StructureDefinition/data-absent-reason",
          "valueCode": "unknown"
        } ]
      },
      "valueCodeableConcept": {
        "coding": [ {
          "system": "http://hl7.org/fhir/administrative-gender",
          "code": "male"
        } ]
      }
    },
    "request": {
      "method": "POST",
      "url": "Observation",
      "ifNoneExist": "identifier=https://mein.krankenhaus.de/fhir/NamingSystem/observationId|cb41c70364de6e77404c3d5ba0161787a8c0119315245bf28ff355f3fcd6822c"
    }
  }, {
    "fullUrl": "Observation/3e0d03e15e8c63608c4149836bfd38c88b343675649e45e1b8b04f2baec45e05",
    "resource": {
      "resourceType": "Observation",
      "meta": {
        "profile": [ "https://www.netzwerk-universitaetsmedizin.de/fhir/StructureDefinition/frailty-score" ]
      },
      "identifier": [ {
        "type": {
          "coding": [ {
            "system": "http://terminology.hl7.org/CodeSystem/v2-0203",
            "code": "OBI",
            "display": "Observation Instance Identifier"
          } ]
        },
        "system": "https://mein.krankenhaus.de/fhir/NamingSystem/observationId",
        "value": "4e02eb5a29f18a1e754dc1ad8caa518ec3de2d5928c9387e48b076351ceec00e",
        "assigner": {
          "reference": "Organization/3a4f3433bce81181bad2d8e0b8fafccf7dc800bc06f29be73dcb38b750a48f9a"
        }
      } ],
      "status": "final",
      "category": [ {
        "coding": [ {
          "system": "http://terminology.hl7.org/CodeSystem/observation-category",
          "code": "survey",
          "display": "Survey"
        } ]
      } ],
      "code": {
        "coding": [ {
          "system": "http://snomed.info/sct",
          "code": "763264000"
        } ],
        "text": "Frailty Scale Score"
      },
      "subject": {
        "reference": "Patient/fb7433249e2539171013c8a104cb96cc85b44bd6fedaeff0cd61d2c73a3402f4"
      },
      "encounter": {
        "reference": "Encounter/b50ca6bae511fdcb46808a467678c1ae0619e72c01b44162615d25408e65047e"
      },
      "_effectiveDateTime": {
        "extension": [ {
          "url": "http://hl7.org/fhir/StructureDefinition/data-absent-reason",
          "valueCode": "unknown"
        } ]
      },
      "valueCodeableConcept": {
        "coding": [ {
          "system": "https://www.netzwerk-universitaetsmedizin.de/fhir/CodeSystem/frailty-score",
          "code": "1"
        } ]
      },
      "method": {
        "coding": [ {
          "system": "http://snomed.info/sct",
          "code": "445414007",
          "display": "Canadian Study of Health and Aging clinical frailty scale"
        } ]
      }
    },
    "request": {
      "method": "POST",
      "url": "Observation",
      "ifNoneExist": "identifier=https://mein.krankenhaus.de/fhir/NamingSystem/observationId|3e0d03e15e8c63608c4149836bfd38c88b343675649e45e1b8b04f2baec45e05"
    }
  }, {
    "fullUrl": "Observation/8e3577b44b1c3adb085f9dd416b0366f1b0453a5162b2938de746733f878c2df",
    "resource": {
      "resourceType": "Observation",
      "meta": {
        "profile": [ "https://www.netzwerk-universitaetsmedizin.de/fhir/StructureDefinition/body-weight" ]
      },
      "identifier": [ {
        "type": {
          "coding": [ {
            "system": "http://terminology.hl7.org/CodeSystem/v2-0203",
            "code": "OBI",
            "display": "Observation Instance Identifier"
          } ]
        },
        "system": "https://mein.krankenhaus.de/fhir/NamingSystem/observationId",
        "value": "8413f5f19e429bb6dae913bd45bedecb439e3ca1da62bf69323d9927b46f379a",
        "assigner": {
          "reference": "Organization/3a4f3433bce81181bad2d8e0b8fafccf7dc800bc06f29be73dcb38b750a48f9a"
        }
      } ],
      "status": "final",
      "category": [ {
        "coding": [ {
          "system": "http://terminology.hl7.org/CodeSystem/observation-category",
          "code": "vital-signs",
          "display": "Vital Signs"
        } ]
      } ],
      "code": {
        "coding": [ {
          "system": "http://loinc.org",
          "code": "29463-7"
        }, {
          "system": "http://snomed.info/sct",
          "code": "27113001"
        } ],
        "text": "Body Weight"
      },
      "subject": {
        "reference": "Patient/fb7433249e2539171013c8a104cb96cc85b44bd6fedaeff0cd61d2c73a3402f4"
      },
      "encounter": {
        "reference": "Encounter/b50ca6bae511fdcb46808a467678c1ae0619e72c01b44162615d25408e65047e"
      },
      "_effectiveDateTime": {
        "extension": [ {
          "url": "http://hl7.org/fhir/StructureDefinition/data-absent-reason",
          "valueCode": "unknown"
        } ]
      },
      "valueQuantity": {
        "value": 82,
        "unit": "kilogram",
        "system": "http://unitsofmeasure.org",
        "code": "kg"
      }
    },
    "request": {
      "method": "POST",
      "url": "Observation",
      "ifNoneExist": "identifier=https://mein.krankenhaus.de/fhir/NamingSystem/observationId|8e3577b44b1c3adb085f9dd416b0366f1b0453a5162b2938de746733f878c2df"
    }
  }, {
    "fullUrl": "Observation/cfc2a9382208a5ab50c282ec1ec76d9a62f12e56bfcbb808c1fc6a4f9a132045",
    "resource": {
      "resourceType": "Observation",
      "meta": {
        "profile": [ "https://www.netzwerk-universitaetsmedizin.de/fhir/StructureDefinition/body-height" ]
      },
      "identifier": [ {
        "type": {
          "coding": [ {
            "system": "http://terminology.hl7.org/CodeSystem/v2-0203",
            "code": "OBI",
            "display": "Observation Instance Identifier"
          } ]
        },
        "system": "https://mein.krankenhaus.de/fhir/NamingSystem/observationId",
        "value": "929826e41b6f581555049637d86f5303dca6e6c534974766741aa5fcb6fde691",
        "assigner": {
          "reference": "Organization/3a4f3433bce81181bad2d8e0b8fafccf7dc800bc06f29be73dcb38b750a48f9a"
        }
      } ],
      "status": "final",
      "category": [ {
        "coding": [ {
          "system": "http://terminology.hl7.org/CodeSystem/observation-category",
          "code": "vital-signs",
          "display": "Vital Signs"
        } ]
      } ],
      "code": {
        "coding": [ {
          "system": "http://loinc.org",
          "code": "8302-2"
        }, {
          "system": "http://snomed.info/sct",
          "code": "50373000"
        } ],
        "text": "Body height"
      },
      "subject": {
        "reference": "Patient/fb7433249e2539171013c8a104cb96cc85b44bd6fedaeff0cd61d2c73a3402f4"
      },
      "encounter": {
        "reference": "Encounter/b50ca6bae511fdcb46808a467678c1ae0619e72c01b44162615d25408e65047e"
      },
      "_effectiveDateTime": {
        "extension": [ {
          "url": "http://hl7.org/fhir/StructureDefinition/data-absent-reason",
          "valueCode": "unknown"
        } ]
      },
      "valueQuantity": {
        "value": 41,
        "unit": "centimeter",
        "system": "http://unitsofmeasure.org",
        "code": "cm"
      }
    },
    "request": {
      "method": "POST",
      "url": "Observation",
      "ifNoneExist": "identifier=https://mein.krankenhaus.de/fhir/NamingSystem/observationId|cfc2a9382208a5ab50c282ec1ec76d9a62f12e56bfcbb808c1fc6a4f9a132045"
    }
  }, {
    "fullUrl": "Observation/64dd811239946b789a4d33fe80ca2faac553a4f84d7b21b110f45b5bf70302df",
    "resource": {
      "resourceType": "Observation",
      "meta": {
        "profile": [ "https://www.netzwerk-universitaetsmedizin.de/fhir/StructureDefinition/known-exposure" ]
      },
      "identifier": [ {
        "type": {
          "coding": [ {
            "system": "http://terminology.hl7.org/CodeSystem/v2-0203",
            "code": "OBI",
            "display": "Observation Instance Identifier"
          } ]
        },
        "system": "https://mein.krankenhaus.de/fhir/NamingSystem/observationId",
        "value": "671d103bfc36bbc4bcc88705807200fb4eed343f0e3cf73775d66a6823f8e861",
        "assigner": {
          "reference": "Organization/3a4f3433bce81181bad2d8e0b8fafccf7dc800bc06f29be73dcb38b750a48f9a"
        }
      } ],
      "status": "final",
      "category": [ {
        "coding": [ {
          "system": "http://terminology.hl7.org/CodeSystem/observation-category",
          "code": "social-history",
          "display": "Social History"
        } ]
      } ],
      "code": {
        "coding": [ {
          "system": "http://loinc.org",
          "code": "88636-6"
        } ],
        "text": "Known exposure"
      },
      "subject": {
        "reference": "Patient/fb7433249e2539171013c8a104cb96cc85b44bd6fedaeff0cd61d2c73a3402f4"
      },
      "encounter": {
        "reference": "Encounter/b50ca6bae511fdcb46808a467678c1ae0619e72c01b44162615d25408e65047e"
      },
      "_effectiveDateTime": {
        "extension": [ {
          "url": "http://hl7.org/fhir/StructureDefinition/data-absent-reason",
          "valueCode": "unknown"
        } ]
      },
      "valueCodeableConcept": {
        "coding": [ {
          "system": "http://snomed.info/sct",
          "code": "373067005"
        } ]
      }
    },
    "request": {
      "method": "POST",
      "url": "Observation",
      "ifNoneExist": "identifier=https://mein.krankenhaus.de/fhir/NamingSystem/observationId|64dd811239946b789a4d33fe80ca2faac553a4f84d7b21b110f45b5bf70302df"
    }
  }, {
    "fullUrl": "Condition/ebe3a3b850b797667bdb939256a70d9b2f7b41463d8f06f483a4c2a514c96722",
    "resource": {
      "resourceType": "Condition",
      "meta": {
        "profile": [ "https://www.netzwerk-universitaetsmedizin.de/fhir/StructureDefinition/complications-covid-19" ]
      },
      "identifier": [ {
        "system": "https://mein.krankenhaus.de/fhir/NamingSystem/conditionId",
        "value": "134622dcd09cfdd652ec3236866a4b81f8fd3a6b3f56c6ddad1a368752b3923d"
      } ],
      "verificationStatus": {
        "coding": [ {
          "system": "http://terminology.hl7.org/CodeSystem/condition-ver-status",
          "code": "refuted",
          "display": "Refuted"
        }, {
          "system": "http://snomed.info/sct",
          "code": "410594000",
          "display": "Definitely NOT present (qualifier value)"
        } ]
      },
      "category": [ {
        "coding": [ {
          "system": "http://snomed.info/sct",
          "code": "116223007"
        } ]
      } ],
      "code": {
        "coding": [ {
          "system": "http://fhir.de/CodeSystem/dimdi/icd-10-gm",
          "version": "2021",
          "code": "I82.9"
        }, {
          "system": "http://snomed.info/sct",
          "code": "111293003"
        } ]
      },
      "subject": {
        "reference": "Patient/fb7433249e2539171013c8a104cb96cc85b44bd6fedaeff0cd61d2c73a3402f4"
      },
      "encounter": {
        "reference": "Encounter/b50ca6bae511fdcb46808a467678c1ae0619e72c01b44162615d25408e65047e"
      },
      "_recordedDate": {
        "extension": [ {
          "url": "http://hl7.org/fhir/StructureDefinition/data-absent-reason",
          "valueCode": "unknown"
        } ]
      }
    },
    "request": {
      "method": "POST",
      "url": "Condition",
      "ifNoneExist": "identifier=https://mein.krankenhaus.de/fhir/NamingSystem/conditionId|ebe3a3b850b797667bdb939256a70d9b2f7b41463d8f06f483a4c2a514c96722"
    }
  }, {
    "fullUrl": "Condition/8de2ea047fb6a7371a1fe6e73a192cf1a258cb19a73599e648e4e1dbc5160be3",
    "resource": {
      "resourceType": "Condition",
      "meta": {
        "profile": [ "https://www.netzwerk-universitaetsmedizin.de/fhir/StructureDefinition/complications-covid-19" ]
      },
      "identifier": [ {
        "system": "https://mein.krankenhaus.de/fhir/NamingSystem/conditionId",
        "value": "d9b5d13bc80f095a6174eceba97a44f0202df127460a3799ae7178269da24d74"
      } ],
      "clinicalStatus": {
        "coding": [ {
          "system": "http://terminology.hl7.org/CodeSystem/condition-clinical",
          "code": "active",
          "display": "Active"
        } ]
      },
      "verificationStatus": {
        "coding": [ {
          "system": "http://terminology.hl7.org/CodeSystem/condition-ver-status",
          "code": "confirmed",
          "display": "Confirmed"
        }, {
          "system": "http://snomed.info/sct",
          "code": "410605003",
          "display": "Confirmed present (qualifier value)"
        } ]
      },
      "category": [ {
        "coding": [ {
          "system": "http://snomed.info/sct",
          "code": "116223007"
        } ]
      } ],
      "code": {
        "coding": [ {
          "system": "http://fhir.de/CodeSystem/dimdi/icd-10-gm",
          "version": "2021",
          "code": "I26.9"
        }, {
          "system": "http://snomed.info/sct",
          "code": "59282003"
        } ]
      },
      "subject": {
        "reference": "Patient/fb7433249e2539171013c8a104cb96cc85b44bd6fedaeff0cd61d2c73a3402f4"
      },
      "encounter": {
        "reference": "Encounter/b50ca6bae511fdcb46808a467678c1ae0619e72c01b44162615d25408e65047e"
      },
      "_recordedDate": {
        "extension": [ {
          "url": "http://hl7.org/fhir/StructureDefinition/data-absent-reason",
          "valueCode": "unknown"
        } ]
      }
    },
    "request": {
      "method": "POST",
      "url": "Condition",
      "ifNoneExist": "identifier=https://mein.krankenhaus.de/fhir/NamingSystem/conditionId|8de2ea047fb6a7371a1fe6e73a192cf1a258cb19a73599e648e4e1dbc5160be3"
    }
  }, {
    "fullUrl": "Condition/20190d227c223e8a87d0aabd22b89f61a4aad781dc2097cfb02193a70301c13a",
    "resource": {
      "resourceType": "Condition",
      "meta": {
        "profile": [ "https://www.netzwerk-universitaetsmedizin.de/fhir/StructureDefinition/complications-covid-19" ]
      },
      "modifierExtension": [ {
        "url": "https://www.netzwerk-universitaetsmedizin.de/fhir/StructureDefinition/uncertainty-of-presence",
        "valueCodeableConcept": {
          "coding": [ {
            "system": "http://snomed.info/sct",
            "code": "261665006",
            "display": "Unknown (qualifier value)"
          } ],
          "text": "Presence unknown."
        }
      } ],
      "identifier": [ {
        "system": "https://mein.krankenhaus.de/fhir/NamingSystem/conditionId",
        "value": "7c8ba421d8891418651ae7cca02704c195a99fa30f59ba4ff4ee3c99dbdb79cc"
      } ],
      "category": [ {
        "coding": [ {
          "system": "http://snomed.info/sct",
          "code": "116223007"
        } ]
      } ],
      "code": {
        "coding": [ {
          "system": "http://fhir.de/CodeSystem/dimdi/icd-10-gm",
          "version": "2021",
          "code": "I64"
        }, {
          "system": "http://snomed.info/sct",
          "code": "230690007"
        } ]
      },
      "subject": {
        "reference": "Patient/fb7433249e2539171013c8a104cb96cc85b44bd6fedaeff0cd61d2c73a3402f4"
      },
      "encounter": {
        "reference": "Encounter/b50ca6bae511fdcb46808a467678c1ae0619e72c01b44162615d25408e65047e"
      },
      "_recordedDate": {
        "extension": [ {
          "url": "http://hl7.org/fhir/StructureDefinition/data-absent-reason",
          "valueCode": "unknown"
        } ]
      }
    },
    "request": {
      "method": "POST",
      "url": "Condition",
      "ifNoneExist": "identifier=https://mein.krankenhaus.de/fhir/NamingSystem/conditionId|20190d227c223e8a87d0aabd22b89f61a4aad781dc2097cfb02193a70301c13a"
    }
  }, {
    "fullUrl": "Condition/2657e4f34893bc66e9339c7de98b88d2342d4fd101d2dcf9a4d27a273e394ad7",
    "resource": {
      "resourceType": "Condition",
      "meta": {
        "profile": [ "https://www.netzwerk-universitaetsmedizin.de/fhir/StructureDefinition/complications-covid-19" ]
      },
      "identifier": [ {
        "system": "https://mein.krankenhaus.de/fhir/NamingSystem/conditionId",
        "value": "e9fc67399bd6e4b2e826fa35774adfa9610be793213aa1bbc62a8bda47176ea9"
      } ],
      "clinicalStatus": {
        "coding": [ {
          "system": "http://terminology.hl7.org/CodeSystem/condition-clinical",
          "code": "active",
          "display": "Active"
        } ]
      },
      "verificationStatus": {
        "coding": [ {
          "system": "http://terminology.hl7.org/CodeSystem/condition-ver-status",
          "code": "confirmed",
          "display": "Confirmed"
        }, {
          "system": "http://snomed.info/sct",
          "code": "410605003",
          "display": "Confirmed present (qualifier value)"
        } ]
      },
      "category": [ {
        "coding": [ {
          "system": "http://snomed.info/sct",
          "code": "116223007"
        } ]
      } ],
      "code": {
        "coding": [ {
          "system": "http://fhir.de/CodeSystem/dimdi/icd-10-gm",
          "version": "2021",
          "code": "I21.9"
        }, {
          "system": "http://snomed.info/sct",
          "code": "22298006"
        } ]
      },
      "subject": {
        "reference": "Patient/fb7433249e2539171013c8a104cb96cc85b44bd6fedaeff0cd61d2c73a3402f4"
      },
      "encounter": {
        "reference": "Encounter/b50ca6bae511fdcb46808a467678c1ae0619e72c01b44162615d25408e65047e"
      },
      "_recordedDate": {
        "extension": [ {
          "url": "http://hl7.org/fhir/StructureDefinition/data-absent-reason",
          "valueCode": "unknown"
        } ]
      }
    },
    "request": {
      "method": "POST",
      "url": "Condition",
      "ifNoneExist": "identifier=https://mein.krankenhaus.de/fhir/NamingSystem/conditionId|2657e4f34893bc66e9339c7de98b88d2342d4fd101d2dcf9a4d27a273e394ad7"
    }
  }, {
    "fullUrl": "Condition/e2483a8f6e3b18c63a8af77cc07a287f6b483fd0cfda607a3be56ed849b3a878",
    "resource": {
      "resourceType": "Condition",
      "meta": {
        "profile": [ "https://www.netzwerk-universitaetsmedizin.de/fhir/StructureDefinition/complications-covid-19" ]
      },
      "modifierExtension": [ {
        "url": "https://www.netzwerk-universitaetsmedizin.de/fhir/StructureDefinition/uncertainty-of-presence",
        "valueCodeableConcept": {
          "coding": [ {
            "system": "http://snomed.info/sct",
            "code": "261665006",
            "display": "Unknown (qualifier value)"
          } ],
          "text": "Presence unknown."
        }
      } ],
      "identifier": [ {
        "system": "https://mein.krankenhaus.de/fhir/NamingSystem/conditionId",
        "value": "7437dd273b4cc61d437479d37690d5d8b2b3fbc9298660011f29c4139710f6ad"
      } ],
      "category": [ {
        "coding": [ {
          "system": "http://snomed.info/sct",
          "code": "116223007"
        } ]
      } ],
      "code": {
        "coding": [ {
          "system": "http://fhir.de/CodeSystem/dimdi/icd-10-gm",
          "version": "2021",
          "code": "I82.9"
        }, {
          "system": "http://snomed.info/sct",
          "code": "371039008"
        } ]
      },
      "subject": {
        "reference": "Patient/fb7433249e2539171013c8a104cb96cc85b44bd6fedaeff0cd61d2c73a3402f4"
      },
      "encounter": {
        "reference": "Encounter/b50ca6bae511fdcb46808a467678c1ae0619e72c01b44162615d25408e65047e"
      },
      "_recordedDate": {
        "extension": [ {
          "url": "http://hl7.org/fhir/StructureDefinition/data-absent-reason",
          "valueCode": "unknown"
        } ]
      }
    },
    "request": {
      "method": "POST",
      "url": "Condition",
      "ifNoneExist": "identifier=https://mein.krankenhaus.de/fhir/NamingSystem/conditionId|e2483a8f6e3b18c63a8af77cc07a287f6b483fd0cfda607a3be56ed849b3a878"
    }
  }, {
    "fullUrl": "Condition/454bb2740069fd9c8fb4f451db488514829688a70fe4ff403770a434dd4d7be9",
    "resource": {
      "resourceType": "Condition",
      "meta": {
        "profile": [ "https://www.netzwerk-universitaetsmedizin.de/fhir/StructureDefinition/complications-covid-19" ]
      },
      "identifier": [ {
        "system": "https://mein.krankenhaus.de/fhir/NamingSystem/conditionId",
        "value": "e916eb0e3ca753886d677f635dddecca21418502738c9bb27718af08e337a726"
      } ],
      "clinicalStatus": {
        "coding": [ {
          "system": "http://terminology.hl7.org/CodeSystem/condition-clinical",
          "code": "active",
          "display": "Active"
        } ]
      },
      "verificationStatus": {
        "coding": [ {
          "system": "http://terminology.hl7.org/CodeSystem/condition-ver-status",
          "code": "confirmed",
          "display": "Confirmed"
        }, {
          "system": "http://snomed.info/sct",
          "code": "410605003",
          "display": "Confirmed present (qualifier value)"
        } ]
      },
      "category": [ {
        "coding": [ {
          "system": "http://snomed.info/sct",
          "code": "116223007"
        } ]
      } ],
      "code": {
        "coding": [ {
          "system": "http://fhir.de/CodeSystem/dimdi/icd-10-gm",
          "version": "2021",
          "code": "J18.9"
        }, {
          "system": "http://snomed.info/sct",
          "code": "128601007"
        } ]
      },
      "subject": {
        "reference": "Patient/fb7433249e2539171013c8a104cb96cc85b44bd6fedaeff0cd61d2c73a3402f4"
      },
      "encounter": {
        "reference": "Encounter/b50ca6bae511fdcb46808a467678c1ae0619e72c01b44162615d25408e65047e"
      },
      "_recordedDate": {
        "extension": [ {
          "url": "http://hl7.org/fhir/StructureDefinition/data-absent-reason",
          "valueCode": "unknown"
        } ]
      }
    },
    "request": {
      "method": "POST",
      "url": "Condition",
      "ifNoneExist": "identifier=https://mein.krankenhaus.de/fhir/NamingSystem/conditionId|454bb2740069fd9c8fb4f451db488514829688a70fe4ff403770a434dd4d7be9"
    }
  }, {
    "fullUrl": "Condition/6242888b32d46b9cb5f8b3d3250ba36df5db646da985e15883ea768e246e00dd",
    "resource": {
      "resourceType": "Condition",
      "meta": {
        "profile": [ "https://www.netzwerk-universitaetsmedizin.de/fhir/StructureDefinition/complications-covid-19" ]
      },
      "modifierExtension": [ {
        "url": "https://www.netzwerk-universitaetsmedizin.de/fhir/StructureDefinition/uncertainty-of-presence",
        "valueCodeableConcept": {
          "coding": [ {
            "system": "http://snomed.info/sct",
            "code": "261665006",
            "display": "Unknown (qualifier value)"
          } ],
          "text": "Presence unknown."
        }
      } ],
      "identifier": [ {
        "system": "https://mein.krankenhaus.de/fhir/NamingSystem/conditionId",
        "value": "8097fd2eaffdb9d62a2f8f02d44f17151ff2186472c78bfb8dee8942a726c660"
      } ],
      "category": [ {
        "coding": [ {
          "system": "http://snomed.info/sct",
          "code": "116223007"
        } ]
      } ],
      "code": {
        "coding": [ {
          "system": "http://fhir.de/CodeSystem/dimdi/icd-10-gm",
          "version": "2021",
          "code": "A41.9"
        }, {
          "system": "http://snomed.info/sct",
          "code": "434156008"
        } ]
      },
      "subject": {
        "reference": "Patient/fb7433249e2539171013c8a104cb96cc85b44bd6fedaeff0cd61d2c73a3402f4"
      },
      "encounter": {
        "reference": "Encounter/b50ca6bae511fdcb46808a467678c1ae0619e72c01b44162615d25408e65047e"
      },
      "_recordedDate": {
        "extension": [ {
          "url": "http://hl7.org/fhir/StructureDefinition/data-absent-reason",
          "valueCode": "unknown"
        } ]
      }
    },
    "request": {
      "method": "POST",
      "url": "Condition",
      "ifNoneExist": "identifier=https://mein.krankenhaus.de/fhir/NamingSystem/conditionId|6242888b32d46b9cb5f8b3d3250ba36df5db646da985e15883ea768e246e00dd"
    }
  }, {
    "fullUrl": "Procedure/e6411051f295aab4a2739f9fde5e12199f713fdc71222bbb5b649e8dd6e7db1f",
    "resource": {
      "resourceType": "Procedure",
      "meta": {
        "profile": [ "https://www.netzwerk-universitaetsmedizin.de/fhir/StructureDefinition/dialysis" ]
      },
      "identifier": [ {
        "system": "https://mein.krankenhaus.de/fhir/NamingSystem/procedureId",
        "value": "919b4c962ef0c6c1a22d07790c8c502219994589e916ac407602592aa8e77a10"
      } ],
      "status": "unknown",
      "category": {
        "coding": [ {
          "system": "http://snomed.info/sct",
          "code": "277132007",
          "display": "Therapeutic procedure (procedure)"
        } ]
      },
      "code": {
        "coding": [ {
          "system": "http://snomed.info/sct",
          "code": "108241001"
        } ],
        "text": "Dialysis"
      },
      "subject": {
        "reference": "Patient/fb7433249e2539171013c8a104cb96cc85b44bd6fedaeff0cd61d2c73a3402f4"
      },
      "encounter": {
        "reference": "Encounter/b50ca6bae511fdcb46808a467678c1ae0619e72c01b44162615d25408e65047e"
      },
      "_performedDateTime": {
        "extension": [ {
          "url": "http://hl7.org/fhir/StructureDefinition/data-absent-reason",
          "valueCode": "unknown"
        } ]
      }
    },
    "request": {
      "method": "POST",
      "url": "Procedure",
      "ifNoneExist": "identifier=https://mein.krankenhaus.de/fhir/NamingSystem/procedureId|e6411051f295aab4a2739f9fde5e12199f713fdc71222bbb5b649e8dd6e7db1f"
    }
  }, {
    "fullUrl": "Procedure/d730ae380583d0ae86dc06d65c7f9db2b3d2b173c8761ec262e5bf70207c0d9e",
    "resource": {
      "resourceType": "Procedure",
      "meta": {
        "profile": [ "https://www.netzwerk-universitaetsmedizin.de/fhir/StructureDefinition/apheresis" ]
      },
      "identifier": [ {
        "system": "https://mein.krankenhaus.de/fhir/NamingSystem/procedureId",
        "value": "f092574f0cffc27f26dc1b8e8d4bb83a6a6f52e9c0c14aac332fac40afe89651"
      } ],
      "status": "unknown",
      "category": {
        "coding": [ {
          "system": "http://snomed.info/sct",
          "code": "277132007",
          "display": "Therapeutic procedure (procedure)"
        } ]
      },
      "code": {
        "coding": [ {
          "system": "http://snomed.info/sct",
          "code": "127788007"
        } ],
        "text": "Apheresis"
      },
      "subject": {
        "reference": "Patient/fb7433249e2539171013c8a104cb96cc85b44bd6fedaeff0cd61d2c73a3402f4"
      },
      "encounter": {
        "reference": "Encounter/b50ca6bae511fdcb46808a467678c1ae0619e72c01b44162615d25408e65047e"
      },
      "_performedDateTime": {
        "extension": [ {
          "url": "http://hl7.org/fhir/StructureDefinition/data-absent-reason",
          "valueCode": "unknown"
        } ]
      }
    },
    "request": {
      "method": "POST",
      "url": "Procedure",
      "ifNoneExist": "identifier=https://mein.krankenhaus.de/fhir/NamingSystem/procedureId|d730ae380583d0ae86dc06d65c7f9db2b3d2b173c8761ec262e5bf70207c0d9e"
    }
  }, {
    "fullUrl": "Procedure/e082ed6a07ab05c0c2631db1672d3246473adbefeed74d7282b1ed2877e02a48",
    "resource": {
      "resourceType": "Procedure",
      "meta": {
        "profile": [ "https://www.netzwerk-universitaetsmedizin.de/fhir/StructureDefinition/prone-position" ]
      },
      "identifier": [ {
        "system": "https://mein.krankenhaus.de/fhir/NamingSystem/procedureId",
        "value": "a8ecc442aa401062bef1cfe0c482d852746d3bd80150378c25230d5bc4da1414"
      } ],
      "status": "not-done",
      "category": {
        "coding": [ {
          "system": "http://snomed.info/sct",
          "code": "225287004",
          "display": "Procedures relating to positioning and support (procedure)"
        } ]
      },
      "code": {
        "coding": [ {
          "system": "http://snomed.info/sct",
          "code": "431182000"
        } ],
        "text": "Prone position"
      },
      "subject": {
        "reference": "Patient/fb7433249e2539171013c8a104cb96cc85b44bd6fedaeff0cd61d2c73a3402f4"
      },
      "encounter": {
        "reference": "Encounter/b50ca6bae511fdcb46808a467678c1ae0619e72c01b44162615d25408e65047e"
      },
      "_performedDateTime": {
        "extension": [ {
          "url": "http://hl7.org/fhir/StructureDefinition/data-absent-reason",
          "valueCode": "not-performed"
        } ]
      }
    },
    "request": {
      "method": "POST",
      "url": "Procedure",
      "ifNoneExist": "identifier=https://mein.krankenhaus.de/fhir/NamingSystem/procedureId|e082ed6a07ab05c0c2631db1672d3246473adbefeed74d7282b1ed2877e02a48"
    }
  }, {
    "fullUrl": "Procedure/21b56d80c85f3d0a8b3fda62a79ab7e45f36aec22d1317733b841e920036a9b5",
    "resource": {
      "resourceType": "Procedure",
      "meta": {
        "profile": [ "https://www.netzwerk-universitaetsmedizin.de/fhir/StructureDefinition/respiratory-therapies" ]
      },
      "identifier": [ {
        "system": "https://mein.krankenhaus.de/fhir/NamingSystem/procedureId",
        "value": "0a1a027070dde37b3f51c22f0f0049df5376994ad9c3165290971a7bd1385890"
      } ],
      "status": "unknown",
      "category": {
        "coding": [ {
          "system": "http://snomed.info/sct",
          "code": "277132007",
          "display": "Therapeutic procedure (procedure)"
        } ]
      },
      "code": {
        "coding": [ {
          "system": "http://snomed.info/sct",
          "code": "40617009",
          "display": "Artificial respiration (procedure)"
        } ]
      },
      "subject": {
        "reference": "Patient/fb7433249e2539171013c8a104cb96cc85b44bd6fedaeff0cd61d2c73a3402f4"
      },
      "encounter": {
        "reference": "Encounter/b50ca6bae511fdcb46808a467678c1ae0619e72c01b44162615d25408e65047e"
      },
      "_performedDateTime": {
        "extension": [ {
          "url": "http://hl7.org/fhir/StructureDefinition/data-absent-reason",
          "valueCode": "unknown"
        } ]
      }
    },
    "request": {
      "method": "POST",
      "url": "Procedure",
      "ifNoneExist": "identifier=https://mein.krankenhaus.de/fhir/NamingSystem/procedureId|21b56d80c85f3d0a8b3fda62a79ab7e45f36aec22d1317733b841e920036a9b5"
    }
  }, {
    "fullUrl": "Observation/e8f1b6d3f91a942ec48415ef6cbbbbd5c2edbe86df5c15310a1f430748b0eb71",
    "resource": {
      "resourceType": "Observation",
      "meta": {
        "profile": [ "https://www.netzwerk-universitaetsmedizin.de/fhir/StructureDefinition/patient-in-icu" ]
      },
      "identifier": [ {
        "system": "https://mein.krankenhaus.de/fhir/NamingSystem/observationId",
        "value": "d94a6abb7f7b0d6249b5cdbedc83ea2a26ec0c6874fe329be0c704237be19d9b"
      } ],
      "status": "final",
      "category": [ {
        "coding": [ {
          "system": "http://terminology.hl7.org/CodeSystem/observation-category",
          "code": "survey",
          "display": "Survey"
        } ]
      } ],
      "code": {
        "coding": [ {
          "system": "https://www.netzwerk-universitaetsmedizin.de/fhir/CodeSystem/ecrf-parameter-codes",
          "code": "01",
          "display": "Is the patient in the intensive care unit?"
        } ]
      },
      "subject": {
        "reference": "Patient/fb7433249e2539171013c8a104cb96cc85b44bd6fedaeff0cd61d2c73a3402f4"
      },
      "encounter": {
        "reference": "Encounter/b50ca6bae511fdcb46808a467678c1ae0619e72c01b44162615d25408e65047e"
      },
      "_effectiveDateTime": {
        "extension": [ {
          "url": "http://hl7.org/fhir/StructureDefinition/data-absent-reason",
          "valueCode": "unknown"
        } ]
      },
      "valueCodeableConcept": {
        "coding": [ {
          "system": "http://snomed.info/sct",
          "code": "261665006"
        } ]
      }
    },
    "request": {
      "method": "POST",
      "url": "Observation",
      "ifNoneExist": "identifier=https://mein.krankenhaus.de/fhir/NamingSystem/observationId|e8f1b6d3f91a942ec48415ef6cbbbbd5c2edbe86df5c15310a1f430748b0eb71"
    }
  }, {
    "fullUrl": "Condition/02e04fd14346af98f86293478385633c9c7d355bf61a3d66564e3ed3129a85bf",
    "resource": {
      "resourceType": "Condition",
      "meta": {
        "profile": [ "https://www.netzwerk-universitaetsmedizin.de/fhir/StructureDefinition/dependence-on-ventilator" ]
      },
      "identifier": [ {
        "system": "https://mein.krankenhaus.de/fhir/NamingSystem/conditionId",
        "value": "f5d750a127e29dc58388806e34a1a3c0c72ca6b40801897c7abcfb3ec98ccac9"
      } ],
      "clinicalStatus": {
        "coding": [ {
          "system": "http://terminology.hl7.org/CodeSystem/condition-clinical",
          "code": "active",
          "display": "Active"
        } ]
      },
      "verificationStatus": {
        "coding": [ {
          "system": "http://terminology.hl7.org/CodeSystem/condition-ver-status",
          "code": "refuted",
          "display": "Refuted"
        }, {
          "system": "http://snomed.info/sct",
          "code": "410594000",
          "display": "Definitely NOT present (qualifier value)"
        } ]
      },
      "category": [ {
        "coding": [ {
          "system": "http://snomed.info/sct",
          "code": "404989005",
          "display": "Ventilation status (observable entity)"
        } ]
      } ],
      "code": {
        "coding": [ {
          "system": "http://snomed.info/sct",
          "code": "444932008"
        } ]
      },
      "subject": {
        "reference": "Patient/fb7433249e2539171013c8a104cb96cc85b44bd6fedaeff0cd61d2c73a3402f4"
      },
      "encounter": {
        "reference": "Encounter/b50ca6bae511fdcb46808a467678c1ae0619e72c01b44162615d25408e65047e"
      },
      "_recordedDate": {
        "extension": [ {
          "url": "http://hl7.org/fhir/StructureDefinition/data-absent-reason",
          "valueCode": "unknown"
        } ]
      }
    },
    "request": {
      "method": "POST",
      "url": "Condition",
      "ifNoneExist": "identifier=https://mein.krankenhaus.de/fhir/NamingSystem/conditionId|02e04fd14346af98f86293478385633c9c7d355bf61a3d66564e3ed3129a85bf"
    }
  }, {
    "fullUrl": "Observation/b6054364708dacfaecf202713703af896d2a3a9c3e17a62ec50e9bbec5371ff2",
    "resource": {
      "resourceType": "Observation",
      "meta": {
        "profile": [ "https://www.netzwerk-universitaetsmedizin.de/fhir/StructureDefinition/discharge-disposition" ]
      },
      "identifier": [ {
        "type": {
          "coding": [ {
            "system": "http://terminology.hl7.org/CodeSystem/v2-0203",
            "code": "OBI",
            "display": "Observation Instance Identifier"
          } ]
        },
        "system": "https://mein.krankenhaus.de/fhir/NamingSystem/observationId",
        "value": "ae4439ac5d728f1d1fe11701fa97531764d5e944cfaee0ed47c0394415f3d11f",
        "assigner": {
          "reference": "Organization/3a4f3433bce81181bad2d8e0b8fafccf7dc800bc06f29be73dcb38b750a48f9a"
        }
      } ],
      "status": "final",
      "category": [ {
        "coding": [ {
          "system": "http://terminology.hl7.org/CodeSystem/observation-category",
          "code": "social-history",
          "display": "Social History"
        } ]
      } ],
      "code": {
        "coding": [ {
          "system": "http://loinc.org",
          "code": "55128-3"
        } ],
        "text": "type of Discharge"
      },
      "subject": {
        "reference": "Patient/fb7433249e2539171013c8a104cb96cc85b44bd6fedaeff0cd61d2c73a3402f4"
      },
      "encounter": {
        "reference": "Encounter/b50ca6bae511fdcb46808a467678c1ae0619e72c01b44162615d25408e65047e"
      },
      "_effectiveDateTime": {
        "extension": [ {
          "url": "http://hl7.org/fhir/StructureDefinition/data-absent-reason",
          "valueCode": "unknown"
        } ]
      },
      "valueCodeableConcept": {
        "coding": [ {
          "system": "http://snomed.info/sct",
          "code": "32485007"
        } ]
      }
    },
    "request": {
      "method": "POST",
      "url": "Observation",
      "ifNoneExist": "identifier=https://mein.krankenhaus.de/fhir/NamingSystem/observationId|b6054364708dacfaecf202713703af896d2a3a9c3e17a62ec50e9bbec5371ff2"
    }
  }, {
    "fullUrl": "Observation/373bb5959511c92b4a290090c495b1419efc9d755023ed79d6cc3dc638ffa3cf",
    "resource": {
      "resourceType": "Observation",
      "meta": {
        "profile": [ "https://www.netzwerk-universitaetsmedizin.de/fhir/StructureDefinition/sars-cov-2-rt-pcr" ]
      },
      "identifier": [ {
        "type": {
          "coding": [ {
            "system": "http://terminology.hl7.org/CodeSystem/v2-0203",
            "code": "OBI",
            "display": "Observation Instance Identifier"
          } ]
        },
        "system": "https://mein.krankenhaus.de/fhir/NamingSystem/observationId",
        "value": "765a20df2ca888e74c31d59571325721f85020e4d822a92ad1de2c66cb06f2cb",
        "assigner": {
          "reference": "Organization/3a4f3433bce81181bad2d8e0b8fafccf7dc800bc06f29be73dcb38b750a48f9a"
        }
      } ],
      "status": "final",
      "category": [ {
        "coding": [ {
          "system": "http://terminology.hl7.org/CodeSystem/observation-category",
          "code": "laboratory",
          "display": "Laboratory"
        }, {
          "system": "http://loinc.org",
          "code": "26436-6",
          "display": "Laboratory studies (set)"
        } ]
      } ],
      "code": {
        "coding": [ {
          "system": "http://loinc.org",
          "code": "94500-6"
        } ]
      },
      "subject": {
        "reference": "Patient/fb7433249e2539171013c8a104cb96cc85b44bd6fedaeff0cd61d2c73a3402f4"
      },
      "encounter": {
        "reference": "Encounter/b50ca6bae511fdcb46808a467678c1ae0619e72c01b44162615d25408e65047e"
      },
      "_effectiveDateTime": {
        "extension": [ {
          "url": "http://hl7.org/fhir/StructureDefinition/data-absent-reason",
          "valueCode": "unknown"
        } ]
      },
      "valueCodeableConcept": {
        "coding": [ {
          "system": "http://snomed.info/sct",
          "code": "260373001"
        } ]
      }
    },
    "request": {
      "method": "POST",
      "url": "Observation",
      "ifNoneExist": "identifier=https://mein.krankenhaus.de/fhir/NamingSystem/observationId|373bb5959511c92b4a290090c495b1419efc9d755023ed79d6cc3dc638ffa3cf"
    }
  }, {
    "fullUrl": "Observation/92a2ca4d94828f3045feed0cc9b300e255a4267405d9b51d4db6ebbd58564dd4",
    "resource": {
      "resourceType": "Observation",
      "meta": {
        "profile": [ "https://www.medizininformatik-initiative.de/fhir/core/modul-labor/StructureDefinition/ObservationLab" ]
      },
      "identifier": [ {
        "type": {
          "coding": [ {
            "system": "http://terminology.hl7.org/CodeSystem/v2-0203",
            "code": "OBI",
            "display": "Observation Instance Identifier"
          } ]
        },
        "system": "https://mein.krankenhaus.de/fhir/NamingSystem/observationId",
        "value": "802a130eb4d17ee38cdbeca7c2b2dcd9cc0c27a3221fae3ccc79d13fe457af71",
        "assigner": {
          "reference": "Organization/3a4f3433bce81181bad2d8e0b8fafccf7dc800bc06f29be73dcb38b750a48f9a"
        }
      } ],
      "status": "final",
      "category": [ {
        "coding": [ {
          "system": "http://terminology.hl7.org/CodeSystem/observation-category",
          "code": "laboratory",
          "display": "Laboratory"
        }, {
          "system": "http://loinc.org",
          "code": "26436-6"
        } ]
      } ],
      "code": {
        "coding": [ {
          "system": "http://loinc.org",
          "code": "48421-2",
          "display": "c-reactive-protein-in-capillary-blood"
        } ],
        "text": "crp"
      },
      "subject": {
        "reference": "Patient/fb7433249e2539171013c8a104cb96cc85b44bd6fedaeff0cd61d2c73a3402f4"
      },
      "encounter": {
        "reference": "Encounter/b50ca6bae511fdcb46808a467678c1ae0619e72c01b44162615d25408e65047e"
      },
      "effectiveDateTime": "2020-04-16T05:54:00+00:00",
      "valueQuantity": {
        "value": 68.39981707990198,
        "unit": "mg/dL",
        "system": "http://unitsofmeasure.org",
        "code": "mg/dL"
      }
    },
    "request": {
      "method": "POST",
      "url": "Observation",
      "ifNoneExist": "identifier=https://mein.krankenhaus.de/fhir/NamingSystem/observationId|92a2ca4d94828f3045feed0cc9b300e255a4267405d9b51d4db6ebbd58564dd4"
    }
  }, {
    "fullUrl": "Observation/3e1eef12d32d102b66ed8491361c46ddfb0a19bd57a01a3dca4e5eadd6ba9ff5",
    "resource": {
      "resourceType": "Observation",
      "meta": {
        "profile": [ "https://www.medizininformatik-initiative.de/fhir/core/modul-labor/StructureDefinition/ObservationLab" ]
      },
      "identifier": [ {
        "type": {
          "coding": [ {
            "system": "http://terminology.hl7.org/CodeSystem/v2-0203",
            "code": "OBI",
            "display": "Observation Instance Identifier"
          } ]
        },
        "system": "https://mein.krankenhaus.de/fhir/NamingSystem/observationId",
        "value": "a6972ec681199ac959e8cdeadf11d75dc86de02555d9f751dc5f7afcef32f611",
        "assigner": {
          "reference": "Organization/3a4f3433bce81181bad2d8e0b8fafccf7dc800bc06f29be73dcb38b750a48f9a"
        }
      } ],
      "status": "final",
      "category": [ {
        "coding": [ {
          "system": "http://terminology.hl7.org/CodeSystem/observation-category",
          "code": "laboratory",
          "display": "Laboratory"
        }, {
          "system": "http://loinc.org",
          "code": "26436-6"
        } ]
      } ],
      "code": {
        "coding": [ {
          "system": "http://loinc.org",
          "code": "48067-3",
          "display": "fibrin-d-dimer-feu-in-platelet-poor-plasma-by-immunoassay"
        } ],
        "text": "ddimer"
      },
      "subject": {
        "reference": "Patient/fb7433249e2539171013c8a104cb96cc85b44bd6fedaeff0cd61d2c73a3402f4"
      },
      "encounter": {
        "reference": "Encounter/b50ca6bae511fdcb46808a467678c1ae0619e72c01b44162615d25408e65047e"
      },
      "effectiveDateTime": "2020-04-16T05:54:00+00:00",
      "valueQuantity": {
        "value": 97.29701378931064,
        "unit": "ng/mL",
        "system": "http://unitsofmeasure.org",
        "code": "ng/mL"
      }
    },
    "request": {
      "method": "POST",
      "url": "Observation",
      "ifNoneExist": "identifier=https://mein.krankenhaus.de/fhir/NamingSystem/observationId|3e1eef12d32d102b66ed8491361c46ddfb0a19bd57a01a3dca4e5eadd6ba9ff5"
    }
  }, {
    "fullUrl": "Observation/ace1a78c39c5ad01b9fc547f58e277cb1f00eb1a8cdb316c599c29df1ddb3d42",
    "resource": {
      "resourceType": "Observation",
      "meta": {
        "profile": [ "https://www.medizininformatik-initiative.de/fhir/core/modul-labor/StructureDefinition/ObservationLab" ]
      },
      "identifier": [ {
        "type": {
          "coding": [ {
            "system": "http://terminology.hl7.org/CodeSystem/v2-0203",
            "code": "OBI",
            "display": "Observation Instance Identifier"
          } ]
        },
        "system": "https://mein.krankenhaus.de/fhir/NamingSystem/observationId",
        "value": "cab4957f0ad1b28609b077147ef058d2f06f213353449612c5509604ec8c6448",
        "assigner": {
          "reference": "Organization/3a4f3433bce81181bad2d8e0b8fafccf7dc800bc06f29be73dcb38b750a48f9a"
        }
      } ],
      "status": "final",
      "category": [ {
        "coding": [ {
          "system": "http://terminology.hl7.org/CodeSystem/observation-category",
          "code": "laboratory",
          "display": "Laboratory"
        }, {
          "system": "http://loinc.org",
          "code": "26436-6"
        } ]
      } ],
      "code": {
        "coding": [ {
          "system": "http://loinc.org",
          "code": "2325-9",
          "display": "gamma-glutamyl-transferase-aspartate-aminotransferase-in-serum-or-plasma"
        } ],
        "text": "gammagt"
      },
      "subject": {
        "reference": "Patient/fb7433249e2539171013c8a104cb96cc85b44bd6fedaeff0cd61d2c73a3402f4"
      },
      "encounter": {
        "reference": "Encounter/b50ca6bae511fdcb46808a467678c1ae0619e72c01b44162615d25408e65047e"
      },
      "effectiveDateTime": "2020-04-16T05:54:00+00:00",
      "valueQuantity": {
        "value": 66.03308055513486,
        "unit": "U/L",
        "system": "http://unitsofmeasure.org",
        "code": "U/L"
      }
    },
    "request": {
      "method": "POST",
      "url": "Observation",
      "ifNoneExist": "identifier=https://mein.krankenhaus.de/fhir/NamingSystem/observationId|ace1a78c39c5ad01b9fc547f58e277cb1f00eb1a8cdb316c599c29df1ddb3d42"
    }
  }, {
    "fullUrl": "Observation/4805c78c63a651ad8c11b9337a9deebd649d50608bb263073789c763e39fa402",
    "resource": {
      "resourceType": "Observation",
      "meta": {
        "profile": [ "https://www.medizininformatik-initiative.de/fhir/core/modul-labor/StructureDefinition/ObservationLab" ]
      },
      "identifier": [ {
        "type": {
          "coding": [ {
            "system": "http://terminology.hl7.org/CodeSystem/v2-0203",
            "code": "OBI",
            "display": "Observation Instance Identifier"
          } ]
        },
        "system": "https://mein.krankenhaus.de/fhir/NamingSystem/observationId",
        "value": "25114d7b68f2e12f2d28b415548688f10fe2c177839c6a4023e97667a0959f68",
        "assigner": {
          "reference": "Organization/3a4f3433bce81181bad2d8e0b8fafccf7dc800bc06f29be73dcb38b750a48f9a"
        }
      } ],
      "status": "final",
      "category": [ {
        "coding": [ {
          "system": "http://terminology.hl7.org/CodeSystem/observation-category",
          "code": "laboratory",
          "display": "Laboratory"
        }, {
          "system": "http://loinc.org",
          "code": "26436-6"
        } ]
      } ],
      "code": {
        "coding": [ {
          "system": "http://loinc.org",
          "code": "1920-8",
          "display": "aspartate-aminotransferase-in-serum-or-plasma"
        } ],
        "text": "gotast"
      },
      "subject": {
        "reference": "Patient/fb7433249e2539171013c8a104cb96cc85b44bd6fedaeff0cd61d2c73a3402f4"
      },
      "encounter": {
        "reference": "Encounter/b50ca6bae511fdcb46808a467678c1ae0619e72c01b44162615d25408e65047e"
      },
      "effectiveDateTime": "2020-04-16T05:54:00+00:00",
      "valueQuantity": {
        "value": 84.07343175798545,
        "unit": "U/L",
        "system": "http://unitsofmeasure.org",
        "code": "U/L"
      }
    },
    "request": {
      "method": "POST",
      "url": "Observation",
      "ifNoneExist": "identifier=https://mein.krankenhaus.de/fhir/NamingSystem/observationId|4805c78c63a651ad8c11b9337a9deebd649d50608bb263073789c763e39fa402"
    }
  }, {
    "fullUrl": "Observation/01039fe1c55252133ee001fae038a2b4307a5c123aef9c777900f97a4635a34f",
    "resource": {
      "resourceType": "Observation",
      "meta": {
        "profile": [ "https://www.medizininformatik-initiative.de/fhir/core/modul-labor/StructureDefinition/ObservationLab" ]
      },
      "identifier": [ {
        "type": {
          "coding": [ {
            "system": "http://terminology.hl7.org/CodeSystem/v2-0203",
            "code": "OBI",
            "display": "Observation Instance Identifier"
          } ]
        },
        "system": "https://mein.krankenhaus.de/fhir/NamingSystem/observationId",
        "value": "3f303a64517d85cdda8202c26d34d9aecd1ecbfdb9fac68720898190a88b2a6c",
        "assigner": {
          "reference": "Organization/3a4f3433bce81181bad2d8e0b8fafccf7dc800bc06f29be73dcb38b750a48f9a"
        }
      } ],
      "status": "final",
      "category": [ {
        "coding": [ {
          "system": "http://terminology.hl7.org/CodeSystem/observation-category",
          "code": "laboratory",
          "display": "Laboratory"
        }, {
          "system": "http://loinc.org",
          "code": "26436-6"
        } ]
      } ],
      "code": {
        "coding": [ {
          "system": "http://loinc.org",
          "code": "14804-9",
          "display": "lactate-dehydrogenase-in-serum-or-plasma-by-lactate-to-pyruvate-reaction"
        } ],
        "text": "ldh"
      },
      "subject": {
        "reference": "Patient/fb7433249e2539171013c8a104cb96cc85b44bd6fedaeff0cd61d2c73a3402f4"
      },
      "encounter": {
        "reference": "Encounter/b50ca6bae511fdcb46808a467678c1ae0619e72c01b44162615d25408e65047e"
      },
      "effectiveDateTime": "2020-04-16T05:54:00+00:00",
      "valueQuantity": {
        "value": 52.688651863463754,
        "unit": "U/L",
        "system": "http://unitsofmeasure.org",
        "code": "U/L"
      }
    },
    "request": {
      "method": "POST",
      "url": "Observation",
      "ifNoneExist": "identifier=https://mein.krankenhaus.de/fhir/NamingSystem/observationId|01039fe1c55252133ee001fae038a2b4307a5c123aef9c777900f97a4635a34f"
    }
  }, {
    "fullUrl": "Observation/64ddacedcb015af745a8b7df4317b602d528c1482aa54a48329474805f3f25aa",
    "resource": {
      "resourceType": "Observation",
      "meta": {
        "profile": [ "https://www.medizininformatik-initiative.de/fhir/core/modul-labor/StructureDefinition/ObservationLab" ]
      },
      "identifier": [ {
        "type": {
          "coding": [ {
            "system": "http://terminology.hl7.org/CodeSystem/v2-0203",
            "code": "OBI",
            "display": "Observation Instance Identifier"
          } ]
        },
        "system": "https://mein.krankenhaus.de/fhir/NamingSystem/observationId",
        "value": "4e45ba24f0521aadc50463b3b41fd14f970b024b15933bcc54286ab636d82686",
        "assigner": {
          "reference": "Organization/3a4f3433bce81181bad2d8e0b8fafccf7dc800bc06f29be73dcb38b750a48f9a"
        }
      } ],
      "status": "final",
      "category": [ {
        "coding": [ {
          "system": "http://terminology.hl7.org/CodeSystem/observation-category",
          "code": "laboratory",
          "display": "Laboratory"
        }, {
          "system": "http://loinc.org",
          "code": "26436-6"
        } ]
      } ],
      "code": {
        "coding": [ {
          "system": "http://loinc.org",
          "code": "10839-9",
          "display": "troponin-i.cardiac-in-serum-or-plasma"
        } ],
        "text": "kardiale_troponine"
      },
      "subject": {
        "reference": "Patient/fb7433249e2539171013c8a104cb96cc85b44bd6fedaeff0cd61d2c73a3402f4"
      },
      "encounter": {
        "reference": "Encounter/b50ca6bae511fdcb46808a467678c1ae0619e72c01b44162615d25408e65047e"
      },
      "effectiveDateTime": "2020-04-16T05:54:00+00:00",
      "valueQuantity": {
        "value": 41.86057712873039,
        "unit": "ng/mL",
        "system": "http://unitsofmeasure.org",
        "code": "ng/mL"
      }
    },
    "request": {
      "method": "POST",
      "url": "Observation",
      "ifNoneExist": "identifier=https://mein.krankenhaus.de/fhir/NamingSystem/observationId|64ddacedcb015af745a8b7df4317b602d528c1482aa54a48329474805f3f25aa"
    }
  }, {
    "fullUrl": "Observation/1636e89bff7ca5db81b8b63feac593b8a7b31e4055968fc4e04c3dfe21272baf",
    "resource": {
      "resourceType": "Observation",
      "meta": {
        "profile": [ "https://www.medizininformatik-initiative.de/fhir/core/modul-labor/StructureDefinition/ObservationLab" ]
      },
      "identifier": [ {
        "type": {
          "coding": [ {
            "system": "http://terminology.hl7.org/CodeSystem/v2-0203",
            "code": "OBI",
            "display": "Observation Instance Identifier"
          } ]
        },
        "system": "https://mein.krankenhaus.de/fhir/NamingSystem/observationId",
        "value": "6209b4deffff44843b358c4b586d9b1c38e30a7857bcbf5049f8573ab89d154a",
        "assigner": {
          "reference": "Organization/3a4f3433bce81181bad2d8e0b8fafccf7dc800bc06f29be73dcb38b750a48f9a"
        }
      } ],
      "status": "final",
      "category": [ {
        "coding": [ {
          "system": "http://terminology.hl7.org/CodeSystem/observation-category",
          "code": "laboratory",
          "display": "Laboratory"
        }, {
          "system": "http://loinc.org",
          "code": "26436-6"
        } ]
      } ],
      "code": {
        "coding": [ {
          "system": "http://loinc.org",
          "code": "76768-1",
          "display": "hemoglobin-in-mixed-venous-blood-by-oximetry"
        } ],
        "text": "hamoglobin"
      },
      "subject": {
        "reference": "Patient/fb7433249e2539171013c8a104cb96cc85b44bd6fedaeff0cd61d2c73a3402f4"
      },
      "encounter": {
        "reference": "Encounter/b50ca6bae511fdcb46808a467678c1ae0619e72c01b44162615d25408e65047e"
      },
      "effectiveDateTime": "2020-04-16T05:54:00+00:00",
      "valueQuantity": {
        "value": 86.00174887485935,
        "unit": "g/L",
        "system": "http://unitsofmeasure.org",
        "code": "g/L"
      }
    },
    "request": {
      "method": "POST",
      "url": "Observation",
      "ifNoneExist": "identifier=https://mein.krankenhaus.de/fhir/NamingSystem/observationId|1636e89bff7ca5db81b8b63feac593b8a7b31e4055968fc4e04c3dfe21272baf"
    }
  }, {
    "fullUrl": "Observation/3a38b59ebe4f48df1d01ef97e020d3480a328415c0d095194a3b9239baa1b023",
    "resource": {
      "resourceType": "Observation",
      "meta": {
        "profile": [ "https://www.medizininformatik-initiative.de/fhir/core/modul-labor/StructureDefinition/ObservationLab" ]
      },
      "identifier": [ {
        "type": {
          "coding": [ {
            "system": "http://terminology.hl7.org/CodeSystem/v2-0203",
            "code": "OBI",
            "display": "Observation Instance Identifier"
          } ]
        },
        "system": "https://mein.krankenhaus.de/fhir/NamingSystem/observationId",
        "value": "600fda1712ac6e813556dbad05d65bbae1693547c58cdf4b05fbab4678e5dbb0",
        "assigner": {
          "reference": "Organization/3a4f3433bce81181bad2d8e0b8fafccf7dc800bc06f29be73dcb38b750a48f9a"
        }
      } ],
      "status": "final",
      "category": [ {
        "coding": [ {
          "system": "http://terminology.hl7.org/CodeSystem/observation-category",
          "code": "laboratory",
          "display": "Laboratory"
        }, {
          "system": "http://loinc.org",
          "code": "26436-6"
        } ]
      } ],
      "code": {
        "coding": [ {
          "system": "http://loinc.org",
          "code": "14682-9"
        }, {
          "system": "http://loinc.org",
          "code": "2160-0"
        }, {
          "system": "http://loinc.org",
          "code": "21232-4"
        }, {
          "system": "http://loinc.org",
          "code": "25386-4"
        }, {
          "system": "http://loinc.org",
          "code": "12190-5"
        }, {
          "system": "http://loinc.org",
          "code": "59826-8"
        }, {
          "system": "http://loinc.org",
          "code": "38483-4"
        } ],
        "text": "kreatinin"
      },
      "subject": {
        "reference": "Patient/fb7433249e2539171013c8a104cb96cc85b44bd6fedaeff0cd61d2c73a3402f4"
      },
      "encounter": {
        "reference": "Encounter/b50ca6bae511fdcb46808a467678c1ae0619e72c01b44162615d25408e65047e"
      },
      "effectiveDateTime": "2020-04-16T05:54:00+00:00",
      "valueQuantity": {
        "value": 85.04312953195895,
        "unit": "umol/L",
        "system": "http://unitsofmeasure.org",
        "code": "umol/L"
      }
    },
    "request": {
      "method": "POST",
      "url": "Observation",
      "ifNoneExist": "identifier=https://mein.krankenhaus.de/fhir/NamingSystem/observationId|3a38b59ebe4f48df1d01ef97e020d3480a328415c0d095194a3b9239baa1b023"
    }
  }, {
    "fullUrl": "Observation/bf388b44a762fc1e6af5ec3f1369662fbd86ce9d3fa9e43c4eee003cc17b68e3",
    "resource": {
      "resourceType": "Observation",
      "meta": {
        "profile": [ "https://www.medizininformatik-initiative.de/fhir/core/modul-labor/StructureDefinition/ObservationLab" ]
      },
      "identifier": [ {
        "type": {
          "coding": [ {
            "system": "http://terminology.hl7.org/CodeSystem/v2-0203",
            "code": "OBI",
            "display": "Observation Instance Identifier"
          } ]
        },
        "system": "https://mein.krankenhaus.de/fhir/NamingSystem/observationId",
        "value": "b0ab43c5d980636909cda7896bd09bc6733b3e380614c4312ce06b5cbe0e9847",
        "assigner": {
          "reference": "Organization/3a4f3433bce81181bad2d8e0b8fafccf7dc800bc06f29be73dcb38b750a48f9a"
        }
      } ],
      "status": "final",
      "category": [ {
        "coding": [ {
          "system": "http://terminology.hl7.org/CodeSystem/observation-category",
          "code": "laboratory",
          "display": "Laboratory"
        }, {
          "system": "http://loinc.org",
          "code": "26436-6"
        } ]
      } ],
      "code": {
        "coding": [ {
          "system": "http://loinc.org",
          "code": "26464-8",
          "display": "leukocytes-in-blood"
        } ],
        "text": "leukozyten_absolut"
      },
      "subject": {
        "reference": "Patient/fb7433249e2539171013c8a104cb96cc85b44bd6fedaeff0cd61d2c73a3402f4"
      },
      "encounter": {
        "reference": "Encounter/b50ca6bae511fdcb46808a467678c1ae0619e72c01b44162615d25408e65047e"
      },
      "effectiveDateTime": "2020-04-16T05:54:00+00:00",
      "valueQuantity": {
        "value": 74.65965009575125,
        "unit": "10*3/uL",
        "system": "http://unitsofmeasure.org",
        "code": "10*3/uL"
      }
    },
    "request": {
      "method": "POST",
      "url": "Observation",
      "ifNoneExist": "identifier=https://mein.krankenhaus.de/fhir/NamingSystem/observationId|bf388b44a762fc1e6af5ec3f1369662fbd86ce9d3fa9e43c4eee003cc17b68e3"
    }
  }, {
    "fullUrl": "Observation/acef47d3be799cfd2ceed4f519fbf842ecc7c9e9f1aad74c5bd9374fe1278865",
    "resource": {
      "resourceType": "Observation",
      "meta": {
        "profile": [ "https://www.medizininformatik-initiative.de/fhir/core/modul-labor/StructureDefinition/ObservationLab" ]
      },
      "identifier": [ {
        "type": {
          "coding": [ {
            "system": "http://terminology.hl7.org/CodeSystem/v2-0203",
            "code": "OBI",
            "display": "Observation Instance Identifier"
          } ]
        },
        "system": "https://mein.krankenhaus.de/fhir/NamingSystem/observationId",
        "value": "a6cc17c2af1673f2c5d1718ca17951d5268f7d7ee81fa9c1c76e1bede9853c4c",
        "assigner": {
          "reference": "Organization/3a4f3433bce81181bad2d8e0b8fafccf7dc800bc06f29be73dcb38b750a48f9a"
        }
      } ],
      "status": "final",
      "category": [ {
        "coding": [ {
          "system": "http://terminology.hl7.org/CodeSystem/observation-category",
          "code": "laboratory",
          "display": "Laboratory"
        }, {
          "system": "http://loinc.org",
          "code": "26436-6"
        } ]
      } ],
      "code": {
        "coding": [ {
          "system": "http://loinc.org",
          "code": "26474-7",
          "display": "lymphocytes-in-blood"
        } ],
        "text": "lymphozyten_absolut"
      },
      "subject": {
        "reference": "Patient/fb7433249e2539171013c8a104cb96cc85b44bd6fedaeff0cd61d2c73a3402f4"
      },
      "encounter": {
        "reference": "Encounter/b50ca6bae511fdcb46808a467678c1ae0619e72c01b44162615d25408e65047e"
      },
      "effectiveDateTime": "2020-04-16T05:54:00+00:00",
      "valueQuantity": {
        "value": 91.78141857742725,
        "unit": "10*3/uL",
        "system": "http://unitsofmeasure.org",
        "code": "10*3/uL"
      }
    },
    "request": {
      "method": "POST",
      "url": "Observation",
      "ifNoneExist": "identifier=https://mein.krankenhaus.de/fhir/NamingSystem/observationId|acef47d3be799cfd2ceed4f519fbf842ecc7c9e9f1aad74c5bd9374fe1278865"
    }
  }, {
    "fullUrl": "Observation/a4dd28db8ad3301e31c152a3601f3b3e0e9e6a0d23cbcbe61153af2385efd40a",
    "resource": {
      "resourceType": "Observation",
      "meta": {
        "profile": [ "https://www.medizininformatik-initiative.de/fhir/core/modul-labor/StructureDefinition/ObservationLab" ]
      },
      "identifier": [ {
        "type": {
          "coding": [ {
            "system": "http://terminology.hl7.org/CodeSystem/v2-0203",
            "code": "OBI",
            "display": "Observation Instance Identifier"
          } ]
        },
        "system": "https://mein.krankenhaus.de/fhir/NamingSystem/observationId",
        "value": "68ab966300e3385433ebbfaaed0da8959a466fcc8f7428a10d396fd4ea50c189",
        "assigner": {
          "reference": "Organization/3a4f3433bce81181bad2d8e0b8fafccf7dc800bc06f29be73dcb38b750a48f9a"
        }
      } ],
      "status": "final",
      "category": [ {
        "coding": [ {
          "system": "http://terminology.hl7.org/CodeSystem/observation-category",
          "code": "laboratory",
          "display": "Laboratory"
        }, {
          "system": "http://loinc.org",
          "code": "26436-6"
        } ]
      } ],
      "code": {
        "coding": [ {
          "system": "http://loinc.org",
          "code": "753-4",
          "display": "neutrophils-in-blood-by-manual-count"
        } ],
        "text": "neutrophile_absolut"
      },
      "subject": {
        "reference": "Patient/fb7433249e2539171013c8a104cb96cc85b44bd6fedaeff0cd61d2c73a3402f4"
      },
      "encounter": {
        "reference": "Encounter/b50ca6bae511fdcb46808a467678c1ae0619e72c01b44162615d25408e65047e"
      },
      "effectiveDateTime": "2020-04-16T05:54:00+00:00",
      "valueQuantity": {
        "value": 40.80420476214025,
        "unit": "10*3/uL",
        "system": "http://unitsofmeasure.org",
        "code": "10*3/uL"
      }
    },
    "request": {
      "method": "POST",
      "url": "Observation",
      "ifNoneExist": "identifier=https://mein.krankenhaus.de/fhir/NamingSystem/observationId|a4dd28db8ad3301e31c152a3601f3b3e0e9e6a0d23cbcbe61153af2385efd40a"
    }
  }, {
    "fullUrl": "Observation/c9f2200982e4e7da0d11ce71aecda150c9f8eccb4e20613d84adbcc1427fc52f",
    "resource": {
      "resourceType": "Observation",
      "meta": {
        "profile": [ "https://www.medizininformatik-initiative.de/fhir/core/modul-labor/StructureDefinition/ObservationLab" ]
      },
      "identifier": [ {
        "type": {
          "coding": [ {
            "system": "http://terminology.hl7.org/CodeSystem/v2-0203",
            "code": "OBI",
            "display": "Observation Instance Identifier"
          } ]
        },
        "system": "https://mein.krankenhaus.de/fhir/NamingSystem/observationId",
        "value": "ccf1c34ccdc7e0577399432d2bd5c511b06a093c21e87f8aa06a2982e4158ac5",
        "assigner": {
          "reference": "Organization/3a4f3433bce81181bad2d8e0b8fafccf7dc800bc06f29be73dcb38b750a48f9a"
        }
      } ],
      "status": "final",
      "category": [ {
        "coding": [ {
          "system": "http://terminology.hl7.org/CodeSystem/observation-category",
          "code": "laboratory",
          "display": "Laboratory"
        }, {
          "system": "http://loinc.org",
          "code": "26436-6"
        } ]
      } ],
      "code": {
        "coding": [ {
          "system": "http://loinc.org",
          "code": "16631-4",
          "display": "aptt-in-blood-by-coagulation-11-saline"
        } ],
        "text": "ptt"
      },
      "subject": {
        "reference": "Patient/fb7433249e2539171013c8a104cb96cc85b44bd6fedaeff0cd61d2c73a3402f4"
      },
      "encounter": {
        "reference": "Encounter/b50ca6bae511fdcb46808a467678c1ae0619e72c01b44162615d25408e65047e"
      },
      "effectiveDateTime": "2020-04-16T05:54:00+00:00",
      "valueQuantity": {
        "value": 63.80098732984835,
        "unit": "s",
        "system": "http://unitsofmeasure.org",
        "code": "s"
      }
    },
    "request": {
      "method": "POST",
      "url": "Observation",
      "ifNoneExist": "identifier=https://mein.krankenhaus.de/fhir/NamingSystem/observationId|c9f2200982e4e7da0d11ce71aecda150c9f8eccb4e20613d84adbcc1427fc52f"
    }
  }, {
    "fullUrl": "Observation/090a56d121a16d9cb1d813679acb841faef65c253c62ce610363a064fafeda64",
    "resource": {
      "resourceType": "Observation",
      "meta": {
        "profile": [ "https://www.medizininformatik-initiative.de/fhir/core/modul-labor/StructureDefinition/ObservationLab" ]
      },
      "identifier": [ {
        "type": {
          "coding": [ {
            "system": "http://terminology.hl7.org/CodeSystem/v2-0203",
            "code": "OBI",
            "display": "Observation Instance Identifier"
          } ]
        },
        "system": "https://mein.krankenhaus.de/fhir/NamingSystem/observationId",
        "value": "c10aed47c11f889e7101bd84b7514d9512d34a9965ff9f907e7fd195c313774b",
        "assigner": {
          "reference": "Organization/3a4f3433bce81181bad2d8e0b8fafccf7dc800bc06f29be73dcb38b750a48f9a"
        }
      } ],
      "status": "final",
      "category": [ {
        "coding": [ {
          "system": "http://terminology.hl7.org/CodeSystem/observation-category",
          "code": "laboratory",
          "display": "Laboratory"
        }, {
          "system": "http://loinc.org",
          "code": "26436-6"
        } ]
      } ],
      "code": {
        "coding": [ {
          "system": "http://loinc.org",
          "code": "777-3",
          "display": "platelets-in-blood-by-automated-count"
        } ],
        "text": "thrombozyten_absolut"
      },
      "subject": {
        "reference": "Patient/fb7433249e2539171013c8a104cb96cc85b44bd6fedaeff0cd61d2c73a3402f4"
      },
      "encounter": {
        "reference": "Encounter/b50ca6bae511fdcb46808a467678c1ae0619e72c01b44162615d25408e65047e"
      },
      "effectiveDateTime": "2020-04-16T05:54:00+00:00",
      "valueQuantity": {
        "value": 93.65053106438705,
        "unit": "10*3/uL",
        "system": "http://unitsofmeasure.org",
        "code": "10*3/uL"
      }
    },
    "request": {
      "method": "POST",
      "url": "Observation",
      "ifNoneExist": "identifier=https://mein.krankenhaus.de/fhir/NamingSystem/observationId|090a56d121a16d9cb1d813679acb841faef65c253c62ce610363a064fafeda64"
    }
  }, {
    "fullUrl": "Observation/53f48e01881c505b08d7aba078fa5d32cb6248618c45a692c35b719c885537c6",
    "resource": {
      "resourceType": "Observation",
      "meta": {
        "profile": [ "https://www.medizininformatik-initiative.de/fhir/core/modul-labor/StructureDefinition/ObservationLab" ]
      },
      "identifier": [ {
        "type": {
          "coding": [ {
            "system": "http://terminology.hl7.org/CodeSystem/v2-0203",
            "code": "OBI",
            "display": "Observation Instance Identifier"
          } ]
        },
        "system": "https://mein.krankenhaus.de/fhir/NamingSystem/observationId",
        "value": "957a3fb9b605c3927ba5552afbbfd0bc70b20b4dac9c937d5deae7fe3a41017b",
        "assigner": {
          "reference": "Organization/3a4f3433bce81181bad2d8e0b8fafccf7dc800bc06f29be73dcb38b750a48f9a"
        }
      } ],
      "status": "final",
      "category": [ {
        "coding": [ {
          "system": "http://terminology.hl7.org/CodeSystem/observation-category",
          "code": "laboratory",
          "display": "Laboratory"
        }, {
          "system": "http://loinc.org",
          "code": "26436-6"
        } ]
      } ],
      "code": {
        "coding": [ {
          "system": "http://loinc.org",
          "code": "46418-0",
          "display": "inr-in-capillary-blood-by-coagulation-assay"
        } ],
        "text": "inr"
      },
      "subject": {
        "reference": "Patient/fb7433249e2539171013c8a104cb96cc85b44bd6fedaeff0cd61d2c73a3402f4"
      },
      "encounter": {
        "reference": "Encounter/b50ca6bae511fdcb46808a467678c1ae0619e72c01b44162615d25408e65047e"
      },
      "effectiveDateTime": "2020-04-16T05:54:00+00:00",
      "valueQuantity": {
        "value": 86.2214487603208,
        "unit": "{INR}",
        "system": "http://unitsofmeasure.org",
        "code": "{INR}"
      }
    },
    "request": {
      "method": "POST",
      "url": "Observation",
      "ifNoneExist": "identifier=https://mein.krankenhaus.de/fhir/NamingSystem/observationId|53f48e01881c505b08d7aba078fa5d32cb6248618c45a692c35b719c885537c6"
    }
  }, {
    "fullUrl": "Observation/ff1558c5a3e276d8b9ab7ebcf89dab4b5e40ffb91207ca0bf53905e78e3ee488",
    "resource": {
      "resourceType": "Observation",
      "meta": {
        "profile": [ "https://www.medizininformatik-initiative.de/fhir/core/modul-labor/StructureDefinition/ObservationLab" ]
      },
      "identifier": [ {
        "type": {
          "coding": [ {
            "system": "http://terminology.hl7.org/CodeSystem/v2-0203",
            "code": "OBI",
            "display": "Observation Instance Identifier"
          } ]
        },
        "system": "https://mein.krankenhaus.de/fhir/NamingSystem/observationId",
        "value": "21fa4326f938e615ad41f5867580b912f24bd1c451bcb1939ba62f9679e26e92",
        "assigner": {
          "reference": "Organization/3a4f3433bce81181bad2d8e0b8fafccf7dc800bc06f29be73dcb38b750a48f9a"
        }
      } ],
      "status": "final",
      "category": [ {
        "coding": [ {
          "system": "http://terminology.hl7.org/CodeSystem/observation-category",
          "code": "laboratory",
          "display": "Laboratory"
        }, {
          "system": "http://loinc.org",
          "code": "26436-6"
        } ]
      } ],
      "code": {
        "coding": [ {
          "system": "http://loinc.org",
          "code": "76631-1",
          "display": "albumin-in-blood-by-bromocresol-purple-bcp-dye-binding-method"
        } ],
        "text": "serumalbumin"
      },
      "subject": {
        "reference": "Patient/fb7433249e2539171013c8a104cb96cc85b44bd6fedaeff0cd61d2c73a3402f4"
      },
      "encounter": {
        "reference": "Encounter/b50ca6bae511fdcb46808a467678c1ae0619e72c01b44162615d25408e65047e"
      },
      "effectiveDateTime": "2020-04-16T05:54:00+00:00",
      "valueQuantity": {
        "value": 23.31735012882027,
        "unit": "g/L",
        "system": "http://unitsofmeasure.org",
        "code": "g/L"
      }
    },
    "request": {
      "method": "POST",
      "url": "Observation",
      "ifNoneExist": "identifier=https://mein.krankenhaus.de/fhir/NamingSystem/observationId|ff1558c5a3e276d8b9ab7ebcf89dab4b5e40ffb91207ca0bf53905e78e3ee488"
    }
  }, {
    "fullUrl": "Observation/87778ff85bf6b02b2703965e832e27b1697beb79e2831a09f73ed9379ed192f3",
    "resource": {
      "resourceType": "Observation",
      "meta": {
        "profile": [ "https://www.medizininformatik-initiative.de/fhir/core/modul-labor/StructureDefinition/ObservationLab" ]
      },
      "identifier": [ {
        "type": {
          "coding": [ {
            "system": "http://terminology.hl7.org/CodeSystem/v2-0203",
            "code": "OBI",
            "display": "Observation Instance Identifier"
          } ]
        },
        "system": "https://mein.krankenhaus.de/fhir/NamingSystem/observationId",
        "value": "ce2f76253f5f94d03141b658a044dd61412652cb61a446f038eb338651fb89f5",
        "assigner": {
          "reference": "Organization/3a4f3433bce81181bad2d8e0b8fafccf7dc800bc06f29be73dcb38b750a48f9a"
        }
      } ],
      "status": "final",
      "category": [ {
        "coding": [ {
          "system": "http://terminology.hl7.org/CodeSystem/observation-category",
          "code": "laboratory",
          "display": "Laboratory"
        }, {
          "system": "http://loinc.org",
          "code": "26436-6"
        } ]
      } ],
      "code": {
        "coding": [ {
          "system": "http://loinc.org",
          "code": "27811-9",
          "display": "antithrombin-actual-normal-in-platelet-poor-plasma-by-chromogenic-method"
        } ],
        "text": "antithrombin_iii"
      },
      "subject": {
        "reference": "Patient/fb7433249e2539171013c8a104cb96cc85b44bd6fedaeff0cd61d2c73a3402f4"
      },
      "encounter": {
        "reference": "Encounter/b50ca6bae511fdcb46808a467678c1ae0619e72c01b44162615d25408e65047e"
      },
      "effectiveDateTime": "2020-04-16T05:54:00+00:00",
      "valueQuantity": {
        "value": 74.51011426588295,
        "unit": "%",
        "system": "http://unitsofmeasure.org",
        "code": "%"
      }
    },
    "request": {
      "method": "POST",
      "url": "Observation",
      "ifNoneExist": "identifier=https://mein.krankenhaus.de/fhir/NamingSystem/observationId|87778ff85bf6b02b2703965e832e27b1697beb79e2831a09f73ed9379ed192f3"
    }
  }, {
    "fullUrl": "Observation/05088f376395dccbadc766f8ce865ad82f5fb6c57938913a7da826ec939408fa",
    "resource": {
      "resourceType": "Observation",
      "meta": {
        "profile": [ "https://www.medizininformatik-initiative.de/fhir/core/modul-labor/StructureDefinition/ObservationLab" ]
      },
      "identifier": [ {
        "type": {
          "coding": [ {
            "system": "http://terminology.hl7.org/CodeSystem/v2-0203",
            "code": "OBI",
            "display": "Observation Instance Identifier"
          } ]
        },
        "system": "https://mein.krankenhaus.de/fhir/NamingSystem/observationId",
        "value": "b2d533c4ea4fc7541c4fcf21e5b6ff625908676f8294e18c972a4621f5a314b2",
        "assigner": {
          "reference": "Organization/3a4f3433bce81181bad2d8e0b8fafccf7dc800bc06f29be73dcb38b750a48f9a"
        }
      } ],
      "status": "final",
      "category": [ {
        "coding": [ {
          "system": "http://terminology.hl7.org/CodeSystem/observation-category",
          "code": "laboratory",
          "display": "Laboratory"
        }, {
          "system": "http://loinc.org",
          "code": "26436-6"
        } ]
      } ],
      "code": {
        "coding": [ {
          "system": "http://loinc.org",
          "code": "33959-8",
          "display": "procalcitonin-in-serum-or-plasma"
        } ],
        "text": "pct_procalcitonin"
      },
      "subject": {
        "reference": "Patient/fb7433249e2539171013c8a104cb96cc85b44bd6fedaeff0cd61d2c73a3402f4"
      },
      "encounter": {
        "reference": "Encounter/b50ca6bae511fdcb46808a467678c1ae0619e72c01b44162615d25408e65047e"
      },
      "effectiveDateTime": "2020-04-16T05:54:00+00:00",
      "valueQuantity": {
        "value": 4.349904979607134,
        "unit": "ng/mL",
        "system": "http://unitsofmeasure.org",
        "code": "ng/mL"
      }
    },
    "request": {
      "method": "POST",
      "url": "Observation",
      "ifNoneExist": "identifier=https://mein.krankenhaus.de/fhir/NamingSystem/observationId|05088f376395dccbadc766f8ce865ad82f5fb6c57938913a7da826ec939408fa"
    }
  }, {
    "fullUrl": "Observation/ad6e7aa9c7dca838800440c98f6149964155c6e9b8da245f87c04d25f1d130ec",
    "resource": {
      "resourceType": "Observation",
      "meta": {
        "profile": [ "https://www.medizininformatik-initiative.de/fhir/core/modul-labor/StructureDefinition/ObservationLab" ]
      },
      "identifier": [ {
        "type": {
          "coding": [ {
            "system": "http://terminology.hl7.org/CodeSystem/v2-0203",
            "code": "OBI",
            "display": "Observation Instance Identifier"
          } ]
        },
        "system": "https://mein.krankenhaus.de/fhir/NamingSystem/observationId",
        "value": "6fa243b5fa6ea9777757194b16a05705b086ea14cb09a9c4abd1fcc792298794",
        "assigner": {
          "reference": "Organization/3a4f3433bce81181bad2d8e0b8fafccf7dc800bc06f29be73dcb38b750a48f9a"
        }
      } ],
      "status": "final",
      "category": [ {
        "coding": [ {
          "system": "http://terminology.hl7.org/CodeSystem/observation-category",
          "code": "laboratory",
          "display": "Laboratory"
        }, {
          "system": "http://loinc.org",
          "code": "26436-6"
        } ]
      } ],
      "code": {
        "coding": [ {
          "system": "http://loinc.org",
          "code": "49919-4",
          "display": "interleukin-6-in-cerebral-spinal-fluid"
        } ],
        "text": "il6_interleukin_6"
      },
      "subject": {
        "reference": "Patient/fb7433249e2539171013c8a104cb96cc85b44bd6fedaeff0cd61d2c73a3402f4"
      },
      "encounter": {
        "reference": "Encounter/b50ca6bae511fdcb46808a467678c1ae0619e72c01b44162615d25408e65047e"
      },
      "effectiveDateTime": "2020-04-16T05:54:00+00:00",
      "valueQuantity": {
        "value": 24.86472607794028,
        "unit": "pg/mL",
        "system": "http://unitsofmeasure.org",
        "code": "pg/mL"
      }
    },
    "request": {
      "method": "POST",
      "url": "Observation",
      "ifNoneExist": "identifier=https://mein.krankenhaus.de/fhir/NamingSystem/observationId|ad6e7aa9c7dca838800440c98f6149964155c6e9b8da245f87c04d25f1d130ec"
    }
  }, {
    "fullUrl": "Observation/b3a4d6276a4b03508f3c5934897558db4dc581c3e4100825fc0b80554a4bbc97",
    "resource": {
      "resourceType": "Observation",
      "meta": {
        "profile": [ "https://www.medizininformatik-initiative.de/fhir/core/modul-labor/StructureDefinition/ObservationLab" ]
      },
      "identifier": [ {
        "type": {
          "coding": [ {
            "system": "http://terminology.hl7.org/CodeSystem/v2-0203",
            "code": "OBI",
            "display": "Observation Instance Identifier"
          } ]
        },
        "system": "https://mein.krankenhaus.de/fhir/NamingSystem/observationId",
        "value": "60b2b025d56f6117c14f9051e38efd544d937c9fc9849b2c15b6f0ee40f0ef11",
        "assigner": {
          "reference": "Organization/3a4f3433bce81181bad2d8e0b8fafccf7dc800bc06f29be73dcb38b750a48f9a"
        }
      } ],
      "status": "final",
      "category": [ {
        "coding": [ {
          "system": "http://terminology.hl7.org/CodeSystem/observation-category",
          "code": "laboratory",
          "display": "Laboratory"
        }, {
          "system": "http://loinc.org",
          "code": "26436-6"
        } ]
      } ],
      "code": {
        "coding": [ {
          "system": "http://loinc.org",
          "code": "83107-3",
          "display": "natriuretic-peptide.b-prohormone-n-terminal-in-serum-or-plasma-by-immunoassay"
        } ],
        "text": "ntprobnp"
      },
      "subject": {
        "reference": "Patient/fb7433249e2539171013c8a104cb96cc85b44bd6fedaeff0cd61d2c73a3402f4"
      },
      "encounter": {
        "reference": "Encounter/b50ca6bae511fdcb46808a467678c1ae0619e72c01b44162615d25408e65047e"
      },
      "effectiveDateTime": "2020-04-16T05:54:00+00:00",
      "valueQuantity": {
        "value": 69.21466500528764,
        "unit": "pg/mL",
        "system": "http://unitsofmeasure.org",
        "code": "pg/mL"
      }
    },
    "request": {
      "method": "POST",
      "url": "Observation",
      "ifNoneExist": "identifier=https://mein.krankenhaus.de/fhir/NamingSystem/observationId|b3a4d6276a4b03508f3c5934897558db4dc581c3e4100825fc0b80554a4bbc97"
    }
  }, {
    "fullUrl": "Observation/02911a748b9dcbb49bb8c78ff26ef8ee21d7a68ef4762b2b81da868e092db95c",
    "resource": {
      "resourceType": "Observation",
      "meta": {
        "profile": [ "https://www.medizininformatik-initiative.de/fhir/core/modul-labor/StructureDefinition/ObservationLab" ]
      },
      "identifier": [ {
        "type": {
          "coding": [ {
            "system": "http://terminology.hl7.org/CodeSystem/v2-0203",
            "code": "OBI",
            "display": "Observation Instance Identifier"
          } ]
        },
        "system": "https://mein.krankenhaus.de/fhir/NamingSystem/observationId",
        "value": "af8e4b36fa6c272ffe3766af4367db18dd0bbafccceb4f960534208dccc84b32",
        "assigner": {
          "reference": "Organization/3a4f3433bce81181bad2d8e0b8fafccf7dc800bc06f29be73dcb38b750a48f9a"
        }
      } ],
      "status": "final",
      "category": [ {
        "coding": [ {
          "system": "http://terminology.hl7.org/CodeSystem/observation-category",
          "code": "laboratory",
          "display": "Laboratory"
        }, {
          "system": "http://loinc.org",
          "code": "26436-6"
        } ]
      } ],
      "code": {
        "coding": [ {
          "system": "http://loinc.org",
          "code": "3255-7",
          "display": "fibrinogen-in-platelet-poor-plasma-by-coagulation-assay"
        } ],
        "text": "fibrinogen"
      },
      "subject": {
        "reference": "Patient/fb7433249e2539171013c8a104cb96cc85b44bd6fedaeff0cd61d2c73a3402f4"
      },
      "encounter": {
        "reference": "Encounter/b50ca6bae511fdcb46808a467678c1ae0619e72c01b44162615d25408e65047e"
      },
      "effectiveDateTime": "2020-04-16T05:54:00+00:00",
      "valueQuantity": {
        "value": 88.63085076514358,
        "unit": "mg/dL",
        "system": "http://unitsofmeasure.org",
        "code": "mg/dL"
      }
    },
    "request": {
      "method": "POST",
      "url": "Observation",
      "ifNoneExist": "identifier=https://mein.krankenhaus.de/fhir/NamingSystem/observationId|02911a748b9dcbb49bb8c78ff26ef8ee21d7a68ef4762b2b81da868e092db95c"
    }
  }, {
    "fullUrl": "Observation/615780e811dfb09301194f130fd0619c5ab062a8da6f57e5af3bc6f56a5550fd",
    "resource": {
      "resourceType": "Observation",
      "meta": {
        "profile": [ "https://www.netzwerk-universitaetsmedizin.de/fhir/StructureDefinition/sars-cov-2-rt-pcr" ]
      },
      "identifier": [ {
        "type": {
          "coding": [ {
            "system": "http://terminology.hl7.org/CodeSystem/v2-0203",
            "code": "OBI",
            "display": "Observation Instance Identifier"
          } ]
        },
        "system": "https://mein.krankenhaus.de/fhir/NamingSystem/observationId",
        "value": "5e54aea95f0e72dbadf39bdffb73d769ec7d2971a055c77e9370cf3e508847cc",
        "assigner": {
          "reference": "Organization/3a4f3433bce81181bad2d8e0b8fafccf7dc800bc06f29be73dcb38b750a48f9a"
        }
      } ],
      "status": "final",
      "category": [ {
        "coding": [ {
          "system": "http://terminology.hl7.org/CodeSystem/observation-category",
          "code": "laboratory",
          "display": "Laboratory"
        }, {
          "system": "http://loinc.org",
          "code": "26436-6"
        } ]
      } ],
      "code": {
        "coding": [ {
          "system": "http://loinc.org",
          "code": "94500-6",
          "display": "sars-cov-2-covid-19-rna-in-respiratory-specimen-by-naa-with-probe-detection"
        } ],
        "text": "SARS-CoV-2-RNA (PCR)"
      },
      "subject": {
        "reference": "Patient/fb7433249e2539171013c8a104cb96cc85b44bd6fedaeff0cd61d2c73a3402f4"
      },
      "encounter": {
        "reference": "Encounter/b50ca6bae511fdcb46808a467678c1ae0619e72c01b44162615d25408e65047e"
      },
      "effectiveDateTime": "2020-04-16T05:54:00+00:00",
      "valueCodeableConcept": {
        "coding": [ {
          "system": "http://snomed.info/sct",
          "code": "419984006",
          "display": "Inconclusive (qualifier value)"
        } ],
        "text": "SARS-CoV-2-RNA nicht eindeutig"
      }
    },
    "request": {
      "method": "POST",
      "url": "Observation",
      "ifNoneExist": "identifier=https://mein.krankenhaus.de/fhir/NamingSystem/observationId|615780e811dfb09301194f130fd0619c5ab062a8da6f57e5af3bc6f56a5550fd"
    }
  }, {
    "fullUrl": "Observation/ac4b453f526d17d7555496dc3accca5cd25e8240a6f6f1545cdf6133b2d6a741",
    "resource": {
      "resourceType": "Observation",
      "meta": {
        "profile": [ "https://www.netzwerk-universitaetsmedizin.de/fhir/StructureDefinition/sars-cov-2-ab-pnl-ser-pl-ia" ]
      },
      "identifier": [ {
        "type": {
          "coding": [ {
            "system": "http://terminology.hl7.org/CodeSystem/v2-0203",
            "code": "OBI",
            "display": "Observation Instance Identifier"
          } ]
        },
        "system": "https://mein.krankenhaus.de/fhir/NamingSystem/observationId",
        "value": "8e4ce2ab7e8f380eaef953c9b29e876fc881d74f8b92175d3e75272a9f7a447d",
        "assigner": {
          "reference": "Organization/3a4f3433bce81181bad2d8e0b8fafccf7dc800bc06f29be73dcb38b750a48f9a"
        }
      } ],
      "status": "final",
      "category": [ {
        "coding": [ {
          "system": "http://terminology.hl7.org/CodeSystem/observation-category",
          "code": "laboratory",
          "display": "Laboratory"
        }, {
          "system": "http://loinc.org",
          "code": "26436-6"
        } ]
      } ],
      "code": {
        "coding": [ {
          "system": "http://loinc.org",
          "code": "94504-8"
        } ],
        "text": "sarsco_v2_covid19_ab_pnl"
      },
      "subject": {
        "reference": "Patient/fb7433249e2539171013c8a104cb96cc85b44bd6fedaeff0cd61d2c73a3402f4"
      },
      "encounter": {
        "reference": "Encounter/b50ca6bae511fdcb46808a467678c1ae0619e72c01b44162615d25408e65047e"
      },
      "effectiveDateTime": "2020-04-16T05:54:00+00:00",
      "hasMember": [ {
        "reference": "Observation/6d16f8210b6752e67ac7d15bb0e94bdc2106e2f2a3b728991c11874419412c10"
      }, {
        "reference": "Observation/ce67e467da24620e10c7b7918dbaf33f88044ef51a807e36d1b90e402d8789ba"
      }, {
        "reference": "Observation/a2e522a154ac4a3c09acaca2b0d0adb1087d2d65281a2cdff7eeb1499ae8fa29"
      }, {
        "reference": "Observation/4544d220669259a7ec347f49bbf2ce73f31aa9938b3ef77246b31385d005e524"
      }, {
        "reference": "Observation/c2dfd48d30cdc50892ad28dfe28ef57cb27fe3803283d82c0e3f6b52fa5587f2"
      }, {
        "reference": "Observation/65f16b0ea37a82a6b0bdf29b4971e80af902ac378f6f45a89d4411ff2bbcb6b3"
      }, {
        "reference": "Observation/fa55e9e1945b2e8692f69fa6ea044689ae0c07418e7dba7e1fb3b28c3f5ec010"
      } ]
    },
    "request": {
      "method": "POST",
      "url": "Observation",
      "ifNoneExist": "identifier=https://mein.krankenhaus.de/fhir/NamingSystem/observationId|ac4b453f526d17d7555496dc3accca5cd25e8240a6f6f1545cdf6133b2d6a741"
    }
  }, {
    "fullUrl": "Observation/6d16f8210b6752e67ac7d15bb0e94bdc2106e2f2a3b728991c11874419412c10",
    "resource": {
      "resourceType": "Observation",
      "meta": {
        "profile": [ "https://www.netzwerk-universitaetsmedizin.de/fhir/StructureDefinition/sars-cov-2-ab-ser-pl-ql-ia" ]
      },
      "identifier": [ {
        "type": {
          "coding": [ {
            "system": "http://terminology.hl7.org/CodeSystem/v2-0203",
            "code": "OBI",
            "display": "Observation Instance Identifier"
          } ]
        },
        "system": "https://mein.krankenhaus.de/fhir/NamingSystem/observationId",
        "value": "08eacb32699509d49644f6aeac7be99ad978c79a56b522ab0e4eb71ae4847266",
        "assigner": {
          "reference": "Organization/3a4f3433bce81181bad2d8e0b8fafccf7dc800bc06f29be73dcb38b750a48f9a"
        }
      } ],
      "status": "final",
      "category": [ {
        "coding": [ {
          "system": "http://terminology.hl7.org/CodeSystem/observation-category",
          "code": "laboratory",
          "display": "Laboratory"
        }, {
          "system": "http://loinc.org",
          "code": "26436-6"
        } ]
      } ],
      "code": {
        "coding": [ {
          "system": "http://loinc.org",
          "code": "94762-2",
          "display": "sars-cov-2-covid-19-ab-in-serum-or-plasma-by-immunoassay"
        } ],
        "text": "sarsco_v2_covid19_ab_ia_ql"
      },
      "subject": {
        "reference": "Patient/fb7433249e2539171013c8a104cb96cc85b44bd6fedaeff0cd61d2c73a3402f4"
      },
      "encounter": {
        "reference": "Encounter/b50ca6bae511fdcb46808a467678c1ae0619e72c01b44162615d25408e65047e"
      },
      "effectiveDateTime": "2020-04-16T05:54:00+00:00",
      "valueCodeableConcept": {
        "coding": [ {
          "system": "http://snomed.info/sct",
          "code": "419984006"
        } ]
      }
    },
    "request": {
      "method": "POST",
      "url": "Observation",
      "ifNoneExist": "identifier=https://mein.krankenhaus.de/fhir/NamingSystem/observationId|6d16f8210b6752e67ac7d15bb0e94bdc2106e2f2a3b728991c11874419412c10"
    }
  }, {
    "fullUrl": "Observation/ce67e467da24620e10c7b7918dbaf33f88044ef51a807e36d1b90e402d8789ba",
    "resource": {
      "resourceType": "Observation",
      "meta": {
        "profile": [ "https://www.netzwerk-universitaetsmedizin.de/fhir/StructureDefinition/sars-cov-2-ab-ser-pl-ia-acnc" ]
      },
      "identifier": [ {
        "type": {
          "coding": [ {
            "system": "http://terminology.hl7.org/CodeSystem/v2-0203",
            "code": "OBI",
            "display": "Observation Instance Identifier"
          } ]
        },
        "system": "https://mein.krankenhaus.de/fhir/NamingSystem/observationId",
        "value": "b62956e30c191cb2ea5541b17e24c4554f79babd89e03623496a201223af1236",
        "assigner": {
          "reference": "Organization/3a4f3433bce81181bad2d8e0b8fafccf7dc800bc06f29be73dcb38b750a48f9a"
        }
      } ],
      "status": "final",
      "category": [ {
        "coding": [ {
          "system": "http://terminology.hl7.org/CodeSystem/observation-category",
          "code": "laboratory",
          "display": "Laboratory"
        }, {
          "system": "http://loinc.org",
          "code": "26436-6"
        } ]
      } ],
      "code": {
        "coding": [ {
          "system": "http://loinc.org",
          "code": "94769-7",
          "display": "sars-cov-2-covid-19-ab-in-serum-or-plasma-by-immunoassay"
        } ],
        "text": "sarsco_v2_covid19_ab_ia_qn"
      },
      "subject": {
        "reference": "Patient/fb7433249e2539171013c8a104cb96cc85b44bd6fedaeff0cd61d2c73a3402f4"
      },
      "encounter": {
        "reference": "Encounter/b50ca6bae511fdcb46808a467678c1ae0619e72c01b44162615d25408e65047e"
      },
      "effectiveDateTime": "2020-04-16T05:54:00+00:00",
      "valueQuantity": {
        "value": 82.60039363515801,
        "unit": "[IU]/mL",
        "system": "http://unitsofmeasure.org",
        "code": "[IU]/mL"
      }
    },
    "request": {
      "method": "POST",
      "url": "Observation",
      "ifNoneExist": "identifier=https://mein.krankenhaus.de/fhir/NamingSystem/observationId|ce67e467da24620e10c7b7918dbaf33f88044ef51a807e36d1b90e402d8789ba"
    }
  }, {
    "fullUrl": "Observation/a2e522a154ac4a3c09acaca2b0d0adb1087d2d65281a2cdff7eeb1499ae8fa29",
    "resource": {
      "resourceType": "Observation",
      "meta": {
        "profile": [ "https://www.netzwerk-universitaetsmedizin.de/fhir/StructureDefinition/sars-cov-2-iga-ser-pl-ql-ia" ]
      },
      "identifier": [ {
        "type": {
          "coding": [ {
            "system": "http://terminology.hl7.org/CodeSystem/v2-0203",
            "code": "OBI",
            "display": "Observation Instance Identifier"
          } ]
        },
        "system": "https://mein.krankenhaus.de/fhir/NamingSystem/observationId",
        "value": "cae2a81936f9a324b815a178e482a9629c9bbce01480cacc37d7fa05a7db19f8",
        "assigner": {
          "reference": "Organization/3a4f3433bce81181bad2d8e0b8fafccf7dc800bc06f29be73dcb38b750a48f9a"
        }
      } ],
      "status": "final",
      "category": [ {
        "coding": [ {
          "system": "http://terminology.hl7.org/CodeSystem/observation-category",
          "code": "laboratory",
          "display": "Laboratory"
        }, {
          "system": "http://loinc.org",
          "code": "26436-6"
        } ]
      } ],
      "code": {
        "coding": [ {
          "system": "http://loinc.org",
          "code": "94562-6",
          "display": "sars-cov-2-covid-19-iga-ab-in-serum-or-plasma-by-immunoassay"
        } ],
        "text": "sarsco_v2_covid19_ig_a_ia_ql"
      },
      "subject": {
        "reference": "Patient/fb7433249e2539171013c8a104cb96cc85b44bd6fedaeff0cd61d2c73a3402f4"
      },
      "encounter": {
        "reference": "Encounter/b50ca6bae511fdcb46808a467678c1ae0619e72c01b44162615d25408e65047e"
      },
      "effectiveDateTime": "2020-04-16T05:54:00+00:00",
      "valueCodeableConcept": {
        "coding": [ {
          "system": "http://snomed.info/sct",
          "code": "260373001"
        } ]
      }
    },
    "request": {
      "method": "POST",
      "url": "Observation",
      "ifNoneExist": "identifier=https://mein.krankenhaus.de/fhir/NamingSystem/observationId|a2e522a154ac4a3c09acaca2b0d0adb1087d2d65281a2cdff7eeb1499ae8fa29"
    }
  }, {
    "fullUrl": "Observation/4544d220669259a7ec347f49bbf2ce73f31aa9938b3ef77246b31385d005e524",
    "resource": {
      "resourceType": "Observation",
      "meta": {
        "profile": [ "https://www.netzwerk-universitaetsmedizin.de/fhir/StructureDefinition/sars-cov-2-iga-ser-pl-ia-acnc" ]
      },
      "identifier": [ {
        "type": {
          "coding": [ {
            "system": "http://terminology.hl7.org/CodeSystem/v2-0203",
            "code": "OBI",
            "display": "Observation Instance Identifier"
          } ]
        },
        "system": "https://mein.krankenhaus.de/fhir/NamingSystem/observationId",
        "value": "534b5e17d0168c410a1dfdb7ea32231d4bf93694c4fd049e6f40d653eea7c36f",
        "assigner": {
          "reference": "Organization/3a4f3433bce81181bad2d8e0b8fafccf7dc800bc06f29be73dcb38b750a48f9a"
        }
      } ],
      "status": "final",
      "category": [ {
        "coding": [ {
          "system": "http://terminology.hl7.org/CodeSystem/observation-category",
          "code": "laboratory",
          "display": "Laboratory"
        }, {
          "system": "http://loinc.org",
          "code": "26436-6"
        } ]
      } ],
      "code": {
        "coding": [ {
          "system": "http://loinc.org",
          "code": "94720-0",
          "display": "sars-cov-2-covid-19-iga-ab-in-serum-or-plasma-by-immunoassay"
        } ],
        "text": "sarsco_v2_covid19_ig_a_ia_qn"
      },
      "subject": {
        "reference": "Patient/fb7433249e2539171013c8a104cb96cc85b44bd6fedaeff0cd61d2c73a3402f4"
      },
      "encounter": {
        "reference": "Encounter/b50ca6bae511fdcb46808a467678c1ae0619e72c01b44162615d25408e65047e"
      },
      "effectiveDateTime": "2020-04-16T05:54:00+00:00",
      "valueQuantity": {
        "value": 49.8237277991547,
        "unit": "[IU]/mL",
        "system": "http://unitsofmeasure.org",
        "code": "[IU]/mL"
      }
    },
    "request": {
      "method": "POST",
      "url": "Observation",
      "ifNoneExist": "identifier=https://mein.krankenhaus.de/fhir/NamingSystem/observationId|4544d220669259a7ec347f49bbf2ce73f31aa9938b3ef77246b31385d005e524"
    }
  }, {
    "fullUrl": "Observation/c2dfd48d30cdc50892ad28dfe28ef57cb27fe3803283d82c0e3f6b52fa5587f2",
    "resource": {
      "resourceType": "Observation",
      "meta": {
        "profile": [ "https://www.netzwerk-universitaetsmedizin.de/fhir/StructureDefinition/sars-cov-2-igg-ser-pl-ql-ia" ]
      },
      "identifier": [ {
        "type": {
          "coding": [ {
            "system": "http://terminology.hl7.org/CodeSystem/v2-0203",
            "code": "OBI",
            "display": "Observation Instance Identifier"
          } ]
        },
        "system": "https://mein.krankenhaus.de/fhir/NamingSystem/observationId",
        "value": "72a8b4683fa18809c52131396a406b53890fec737000313731c6af34f34427a3",
        "assigner": {
          "reference": "Organization/3a4f3433bce81181bad2d8e0b8fafccf7dc800bc06f29be73dcb38b750a48f9a"
        }
      } ],
      "status": "final",
      "category": [ {
        "coding": [ {
          "system": "http://terminology.hl7.org/CodeSystem/observation-category",
          "code": "laboratory",
          "display": "Laboratory"
        }, {
          "system": "http://loinc.org",
          "code": "26436-6"
        } ]
      } ],
      "code": {
        "coding": [ {
          "system": "http://loinc.org",
          "code": "94563-4",
          "display": "sars-cov-2-covid-19-igg-ab-in-serum-or-plasma-by-immunoassay"
        } ],
        "text": "sarsco_v2_covid19_ig_g_ia_ql"
      },
      "subject": {
        "reference": "Patient/fb7433249e2539171013c8a104cb96cc85b44bd6fedaeff0cd61d2c73a3402f4"
      },
      "encounter": {
        "reference": "Encounter/b50ca6bae511fdcb46808a467678c1ae0619e72c01b44162615d25408e65047e"
      },
      "effectiveDateTime": "2020-04-16T05:54:00+00:00",
      "valueCodeableConcept": {
        "coding": [ {
          "system": "http://snomed.info/sct",
          "code": "260415000"
        } ]
      }
    },
    "request": {
      "method": "POST",
      "url": "Observation",
      "ifNoneExist": "identifier=https://mein.krankenhaus.de/fhir/NamingSystem/observationId|c2dfd48d30cdc50892ad28dfe28ef57cb27fe3803283d82c0e3f6b52fa5587f2"
    }
  }, {
    "fullUrl": "Observation/65f16b0ea37a82a6b0bdf29b4971e80af902ac378f6f45a89d4411ff2bbcb6b3",
    "resource": {
      "resourceType": "Observation",
      "meta": {
        "profile": [ "https://www.netzwerk-universitaetsmedizin.de/fhir/StructureDefinition/sars-cov-2-igm-ser-pl-ql-ia" ]
      },
      "identifier": [ {
        "type": {
          "coding": [ {
            "system": "http://terminology.hl7.org/CodeSystem/v2-0203",
            "code": "OBI",
            "display": "Observation Instance Identifier"
          } ]
        },
        "system": "https://mein.krankenhaus.de/fhir/NamingSystem/observationId",
        "value": "bfefee62d47e902d737fb75c8a7ffd6f6d4b6425bbd0224f8c5da10da31b7a27",
        "assigner": {
          "reference": "Organization/3a4f3433bce81181bad2d8e0b8fafccf7dc800bc06f29be73dcb38b750a48f9a"
        }
      } ],
      "status": "final",
      "category": [ {
        "coding": [ {
          "system": "http://terminology.hl7.org/CodeSystem/observation-category",
          "code": "laboratory",
          "display": "Laboratory"
        }, {
          "system": "http://loinc.org",
          "code": "26436-6"
        } ]
      } ],
      "code": {
        "coding": [ {
          "system": "http://loinc.org",
          "code": "94564-2",
          "display": "sars-cov-2-covid-19-igm-ab-in-serum-or-plasma-by-immunoassay"
        } ],
        "text": "sarsco_v2_covid19_ig_m_ia_ql"
      },
      "subject": {
        "reference": "Patient/fb7433249e2539171013c8a104cb96cc85b44bd6fedaeff0cd61d2c73a3402f4"
      },
      "encounter": {
        "reference": "Encounter/b50ca6bae511fdcb46808a467678c1ae0619e72c01b44162615d25408e65047e"
      },
      "effectiveDateTime": "2020-04-16T05:54:00+00:00",
      "valueCodeableConcept": {
        "coding": [ {
          "system": "http://snomed.info/sct",
          "code": "419984006"
        } ]
      }
    },
    "request": {
      "method": "POST",
      "url": "Observation",
      "ifNoneExist": "identifier=https://mein.krankenhaus.de/fhir/NamingSystem/observationId|65f16b0ea37a82a6b0bdf29b4971e80af902ac378f6f45a89d4411ff2bbcb6b3"
    }
  }, {
    "fullUrl": "Observation/fa55e9e1945b2e8692f69fa6ea044689ae0c07418e7dba7e1fb3b28c3f5ec010",
    "resource": {
      "resourceType": "Observation",
      "meta": {
        "profile": [ "https://www.netzwerk-universitaetsmedizin.de/fhir/StructureDefinition/sars-cov-2-igm-ser-pl-ia-acnc" ]
      },
      "identifier": [ {
        "type": {
          "coding": [ {
            "system": "http://terminology.hl7.org/CodeSystem/v2-0203",
            "code": "OBI",
            "display": "Observation Instance Identifier"
          } ]
        },
        "system": "https://mein.krankenhaus.de/fhir/NamingSystem/observationId",
        "value": "3a52f4589198d1dcb4d1038552887c764831d54b2459143943f5ad514a98f016",
        "assigner": {
          "reference": "Organization/3a4f3433bce81181bad2d8e0b8fafccf7dc800bc06f29be73dcb38b750a48f9a"
        }
      } ],
      "status": "final",
      "category": [ {
        "coding": [ {
          "system": "http://terminology.hl7.org/CodeSystem/observation-category",
          "code": "laboratory",
          "display": "Laboratory"
        }, {
          "system": "http://loinc.org",
          "code": "26436-6"
        } ]
      } ],
      "code": {
        "coding": [ {
          "system": "http://loinc.org",
          "code": "94506-3",
          "display": "sars-cov-2-covid-19-igm-ab-in-serum-or-plasma-by-immunoassay"
        } ],
        "text": "sarsco_v2_covid19_ig_m_ia_qn"
      },
      "subject": {
        "reference": "Patient/fb7433249e2539171013c8a104cb96cc85b44bd6fedaeff0cd61d2c73a3402f4"
      },
      "encounter": {
        "reference": "Encounter/b50ca6bae511fdcb46808a467678c1ae0619e72c01b44162615d25408e65047e"
      },
      "effectiveDateTime": "2020-04-16T05:54:00+00:00",
      "valueQuantity": {
        "value": 31.981900370300163,
        "unit": "[arb'U]/mL",
        "system": "http://unitsofmeasure.org",
        "code": "[arb'U]/mL"
      }
    },
    "request": {
      "method": "POST",
      "url": "Observation",
      "ifNoneExist": "identifier=https://mein.krankenhaus.de/fhir/NamingSystem/observationId|fa55e9e1945b2e8692f69fa6ea044689ae0c07418e7dba7e1fb3b28c3f5ec010"
    }
  }, {
    "fullUrl": "MedicationStatement/9d1ccd3269e9ca7489250b43f17cffffbb274bacc097fc99e4363698cfd4fdcd",
    "resource": {
      "resourceType": "MedicationStatement",
      "meta": {
        "profile": [ "https://www.netzwerk-universitaetsmedizin.de/fhir/StructureDefinition/pharmacological-therapy" ]
      },
      "identifier": [ {
        "system": "https://mein.krankenhaus.de/fhir/NamingSystem/medicationstatementId",
        "value": "211fda7b568bb8b9848701b148791b4034ff2bc8e02d3c28889e453685008166"
      } ],
      "status": "stopped",
      "medicationCodeableConcept": {
        "coding": [ {
          "system": "http://snomed.info/sct",
          "code": "41549009"
        } ],
        "text": "ACE inhibitors"
      },
      "subject": {
        "reference": "Patient/fb7433249e2539171013c8a104cb96cc85b44bd6fedaeff0cd61d2c73a3402f4"
      },
      "effectiveDateTime": "2020-04-18T23:10:00+00:00"
    },
    "request": {
      "method": "POST",
      "url": "MedicationStatement",
      "ifNoneExist": "identifier=https://mein.krankenhaus.de/fhir/NamingSystem/medicationstatementId|9d1ccd3269e9ca7489250b43f17cffffbb274bacc097fc99e4363698cfd4fdcd"
    }
  }, {
    "fullUrl": "MedicationStatement/6b73c3cd7e4b09ced27a04e47dc2b3a212c0fd76ac4e802d7aef6d0890a4667a",
    "resource": {
      "resourceType": "MedicationStatement",
      "meta": {
        "profile": [ "https://www.netzwerk-universitaetsmedizin.de/fhir/StructureDefinition/pharmacological-therapy" ]
      },
      "identifier": [ {
        "system": "https://mein.krankenhaus.de/fhir/NamingSystem/medicationstatementId",
        "value": "b66b47f1c50e7ce627c8c710bea7e2e1bc4cc43abb0f85a9490b876b92fe09c7"
      } ],
      "status": "unknown",
      "medicationCodeableConcept": {
        "coding": [ {
          "system": "http://snomed.info/sct",
          "code": "333710000"
        } ],
        "text": "immunoglobulins"
      },
      "subject": {
        "reference": "Patient/fb7433249e2539171013c8a104cb96cc85b44bd6fedaeff0cd61d2c73a3402f4"
      },
      "effectiveDateTime": "2020-04-18T23:10:00+00:00"
    },
    "request": {
      "method": "POST",
      "url": "MedicationStatement",
      "ifNoneExist": "identifier=https://mein.krankenhaus.de/fhir/NamingSystem/medicationstatementId|6b73c3cd7e4b09ced27a04e47dc2b3a212c0fd76ac4e802d7aef6d0890a4667a"
    }
  }, {
    "fullUrl": "MedicationStatement/60d1b8c985f9e6e0cec2c2d2f84c13ef323978d2203415fbce80befa0cf20a1f",
    "resource": {
      "resourceType": "MedicationStatement",
      "meta": {
        "profile": [ "https://www.netzwerk-universitaetsmedizin.de/fhir/StructureDefinition/pharmacological-therapy-anticoagulants" ]
      },
      "identifier": [ {
        "system": "https://mein.krankenhaus.de/fhir/NamingSystem/medicationstatementId",
        "value": "787416febf31123ae840715f209df3577f6bf5deaa756e77a55e45f6b63e133d"
      } ],
      "status": "unknown",
      "medicationCodeableConcept": {
        "coding": [ {
          "system": "http://snomed.info/sct",
          "code": "81839001"
        }, {
          "system": "http://fhir.de/CodeSystem/dimdi/atc",
          "code": "B01AB01"
        }, {
          "system": "http://fhir.de/CodeSystem/dimdi/atc",
          "code": "B01AB51"
        } ]
      },
      "subject": {
        "reference": "Patient/fb7433249e2539171013c8a104cb96cc85b44bd6fedaeff0cd61d2c73a3402f4"
      },
      "effectiveDateTime": "2020-04-18T23:10:00+00:00",
      "reasonCode": [ {
        "coding": [ {
          "system": "http://snomed.info/sct",
          "code": "373808002",
          "display": "Curative - procedure intent (qualifier value)"
        } ]
      } ]
    },
    "request": {
      "method": "POST",
      "url": "MedicationStatement",
      "ifNoneExist": "identifier=https://mein.krankenhaus.de/fhir/NamingSystem/medicationstatementId|60d1b8c985f9e6e0cec2c2d2f84c13ef323978d2203415fbce80befa0cf20a1f"
    }
  }, {
    "fullUrl": "MedicationStatement/dda68b75e5312071cae03e109c779cafdea97bcb4e40a8210e6f2bc2714382fe",
    "resource": {
      "resourceType": "MedicationStatement",
      "meta": {
        "profile": [ "https://www.netzwerk-universitaetsmedizin.de/fhir/StructureDefinition/pharmacological-therapy-anticoagulants" ]
      },
      "identifier": [ {
        "system": "https://mein.krankenhaus.de/fhir/NamingSystem/medicationstatementId",
        "value": "26871fe7eb84339aae2dc37729fb9b031ceef9de746d8dfe53aae14b539754b4"
      } ],
      "status": "active",
      "medicationCodeableConcept": {
        "coding": [ {
          "system": "http://snomed.info/sct",
          "code": "81839001"
        }, {
          "system": "http://fhir.de/CodeSystem/dimdi/atc",
          "code": "B01AB05"
        } ]
      },
      "subject": {
        "reference": "Patient/fb7433249e2539171013c8a104cb96cc85b44bd6fedaeff0cd61d2c73a3402f4"
      },
      "effectiveDateTime": "2020-04-18T23:10:00+00:00",
      "reasonCode": [ {
        "coding": [ {
          "system": "http://snomed.info/sct",
          "code": "373808002",
          "display": "Curative - procedure intent (qualifier value)"
        } ]
      } ]
    },
    "request": {
      "method": "POST",
      "url": "MedicationStatement",
      "ifNoneExist": "identifier=https://mein.krankenhaus.de/fhir/NamingSystem/medicationstatementId|dda68b75e5312071cae03e109c779cafdea97bcb4e40a8210e6f2bc2714382fe"
    }
  }, {
    "fullUrl": "MedicationStatement/37bf9e2d510bbd21cc3bac5a916a399dcd7c71291a1d88d2a7ec5129e1023234",
    "resource": {
      "resourceType": "MedicationStatement",
      "meta": {
        "profile": [ "https://www.netzwerk-universitaetsmedizin.de/fhir/StructureDefinition/pharmacological-therapy-anticoagulants" ]
      },
      "identifier": [ {
        "system": "https://mein.krankenhaus.de/fhir/NamingSystem/medicationstatementId",
        "value": "7d336d6d46682cc7b16927929a8c4d1f37aba5588006c0274bab343c29c5b564"
      } ],
      "status": "unknown",
      "medicationCodeableConcept": {
        "coding": [ {
          "system": "http://snomed.info/sct",
          "code": "81839001"
        }, {
          "system": "http://fhir.de/CodeSystem/dimdi/atc",
          "code": "B01AE03"
        } ]
      },
      "subject": {
        "reference": "Patient/fb7433249e2539171013c8a104cb96cc85b44bd6fedaeff0cd61d2c73a3402f4"
      },
      "effectiveDateTime": "2020-04-18T23:10:00+00:00",
      "reasonCode": [ {
        "coding": [ {
          "system": "http://snomed.info/sct",
          "code": "373808002",
          "display": "Curative - procedure intent (qualifier value)"
        } ]
      } ]
    },
    "request": {
      "method": "POST",
      "url": "MedicationStatement",
      "ifNoneExist": "identifier=https://mein.krankenhaus.de/fhir/NamingSystem/medicationstatementId|37bf9e2d510bbd21cc3bac5a916a399dcd7c71291a1d88d2a7ec5129e1023234"
    }
  }, {
    "fullUrl": "MedicationStatement/4a2aeafadc4431e285ab78f09bb4f1231fa12c22b44fd85c564077c0134bff71",
    "resource": {
      "resourceType": "MedicationStatement",
      "meta": {
        "profile": [ "https://www.netzwerk-universitaetsmedizin.de/fhir/StructureDefinition/pharmacological-therapy-anticoagulants" ]
      },
      "identifier": [ {
        "system": "https://mein.krankenhaus.de/fhir/NamingSystem/medicationstatementId",
        "value": "e70afa9be611b76d7f2aa1b87256a8938a1244220178c66f1315351053c076a0"
      } ],
      "status": "active",
      "medicationCodeableConcept": {
        "coding": [ {
          "system": "http://snomed.info/sct",
          "code": "81839001"
        }, {
          "system": "http://fhir.de/CodeSystem/dimdi/atc",
          "code": "B01AC"
        } ]
      },
      "subject": {
        "reference": "Patient/fb7433249e2539171013c8a104cb96cc85b44bd6fedaeff0cd61d2c73a3402f4"
      },
      "effectiveDateTime": "2020-04-18T23:10:00+00:00",
      "reasonCode": [ {
        "coding": [ {
          "system": "http://snomed.info/sct",
          "code": "373808002",
          "display": "Curative - procedure intent (qualifier value)"
        } ]
      } ]
    },
    "request": {
      "method": "POST",
      "url": "MedicationStatement",
      "ifNoneExist": "identifier=https://mein.krankenhaus.de/fhir/NamingSystem/medicationstatementId|4a2aeafadc4431e285ab78f09bb4f1231fa12c22b44fd85c564077c0134bff71"
    }
  }, {
    "fullUrl": "MedicationStatement/228174b6ff59967e635fe0ed3bf4be1c445bf460bae0c12baea4efd62db8f999",
    "resource": {
      "resourceType": "MedicationStatement",
      "meta": {
        "profile": [ "https://www.netzwerk-universitaetsmedizin.de/fhir/StructureDefinition/pharmacological-therapy-anticoagulants" ]
      },
      "identifier": [ {
        "system": "https://mein.krankenhaus.de/fhir/NamingSystem/medicationstatementId",
        "value": "c3c8f4e2def686b5b399a3906763a13054d3f0ac97cf132d477ac0ef9dd6d67b"
      } ],
      "status": "active",
      "medicationCodeableConcept": {
        "coding": [ {
          "system": "http://snomed.info/sct",
          "code": "81839001"
        }, {
          "system": "http://fhir.de/CodeSystem/dimdi/atc",
          "code": "B01AB09"
        } ]
      },
      "subject": {
        "reference": "Patient/fb7433249e2539171013c8a104cb96cc85b44bd6fedaeff0cd61d2c73a3402f4"
      },
      "effectiveDateTime": "2020-04-18T23:10:00+00:00",
      "reasonCode": [ {
        "coding": [ {
          "system": "http://snomed.info/sct",
          "code": "373808002",
          "display": "Curative - procedure intent (qualifier value)"
        } ]
      } ]
    },
    "request": {
      "method": "POST",
      "url": "MedicationStatement",
      "ifNoneExist": "identifier=https://mein.krankenhaus.de/fhir/NamingSystem/medicationstatementId|228174b6ff59967e635fe0ed3bf4be1c445bf460bae0c12baea4efd62db8f999"
    }
  }, {
    "fullUrl": "MedicationStatement/9466ebed39016310d66385be3b9ff94ba951930a15b7a6b1ee56eb75712bec86",
    "resource": {
      "resourceType": "MedicationStatement",
      "meta": {
        "profile": [ "https://www.netzwerk-universitaetsmedizin.de/fhir/StructureDefinition/pharmacological-therapy-anticoagulants" ]
      },
      "identifier": [ {
        "system": "https://mein.krankenhaus.de/fhir/NamingSystem/medicationstatementId",
        "value": "b8e20d46ba805949b101494bb10f4110234e0eda1cb3c4346d944ceacc7b3469"
      } ],
      "status": "not-taken",
      "medicationCodeableConcept": {
        "coding": [ {
          "system": "http://snomed.info/sct",
          "code": "81839001"
        }, {
          "system": "http://fhir.de/CodeSystem/dimdi/atc",
          "code": "B01AA04"
        } ]
      },
      "subject": {
        "reference": "Patient/fb7433249e2539171013c8a104cb96cc85b44bd6fedaeff0cd61d2c73a3402f4"
      },
      "effectiveDateTime": "2020-04-18T23:10:00+00:00",
      "reasonCode": [ {
        "coding": [ {
          "system": "http://snomed.info/sct",
          "code": "373808002",
          "display": "Curative - procedure intent (qualifier value)"
        } ]
      } ]
    },
    "request": {
      "method": "POST",
      "url": "MedicationStatement",
      "ifNoneExist": "identifier=https://mein.krankenhaus.de/fhir/NamingSystem/medicationstatementId|9466ebed39016310d66385be3b9ff94ba951930a15b7a6b1ee56eb75712bec86"
    }
  }, {
    "fullUrl": "MedicationStatement/2db280625191064f94a80fa3e68ce85a8ddb04ebcdf7fa799f7b9385980b3c28",
    "resource": {
      "resourceType": "MedicationStatement",
      "meta": {
        "profile": [ "https://www.netzwerk-universitaetsmedizin.de/fhir/StructureDefinition/pharmacological-therapy-anticoagulants" ]
      },
      "identifier": [ {
        "system": "https://mein.krankenhaus.de/fhir/NamingSystem/medicationstatementId",
        "value": "a074fb58a9c05a1248d3ae8c11ff212b4fc5140e7ac620731a551f6d0a389102"
      } ],
      "status": "active",
      "medicationCodeableConcept": {
        "coding": [ {
          "system": "http://snomed.info/sct",
          "code": "81839001"
        }, {
          "system": "http://fhir.de/CodeSystem/dimdi/atc",
          "code": "B01AE"
        } ]
      },
      "subject": {
        "reference": "Patient/fb7433249e2539171013c8a104cb96cc85b44bd6fedaeff0cd61d2c73a3402f4"
      },
      "effectiveDateTime": "2020-04-18T23:10:00+00:00",
      "reasonCode": [ {
        "coding": [ {
          "system": "http://snomed.info/sct",
          "code": "373808002",
          "display": "Curative - procedure intent (qualifier value)"
        } ]
      } ]
    },
    "request": {
      "method": "POST",
      "url": "MedicationStatement",
      "ifNoneExist": "identifier=https://mein.krankenhaus.de/fhir/NamingSystem/medicationstatementId|2db280625191064f94a80fa3e68ce85a8ddb04ebcdf7fa799f7b9385980b3c28"
    }
  }, {
    "fullUrl": "MedicationStatement/463599d7ac9a8b02f84d4c0d8c299c28a8a3e928fc0ca6b00022d5e768a775d9",
    "resource": {
      "resourceType": "MedicationStatement",
      "meta": {
        "profile": [ "https://www.netzwerk-universitaetsmedizin.de/fhir/StructureDefinition/pharmacological-therapy-anticoagulants" ]
      },
      "identifier": [ {
        "system": "https://mein.krankenhaus.de/fhir/NamingSystem/medicationstatementId",
        "value": "3bfbd49ada4e0432811b62469a10dff5af705e8f704dcb8ad6c86fef9a87b6b5"
      } ],
      "status": "not-taken",
      "medicationCodeableConcept": {
        "coding": [ {
          "system": "http://snomed.info/sct",
          "code": "81839001"
        } ]
      },
      "subject": {
        "reference": "Patient/fb7433249e2539171013c8a104cb96cc85b44bd6fedaeff0cd61d2c73a3402f4"
      },
      "effectiveDateTime": "2020-04-18T23:10:00+00:00",
      "reasonCode": [ {
        "coding": [ {
          "system": "http://snomed.info/sct",
          "code": "373808002",
          "display": "Curative - procedure intent (qualifier value)"
        } ]
      } ]
    },
    "request": {
      "method": "POST",
      "url": "MedicationStatement",
      "ifNoneExist": "identifier=https://mein.krankenhaus.de/fhir/NamingSystem/medicationstatementId|463599d7ac9a8b02f84d4c0d8c299c28a8a3e928fc0ca6b00022d5e768a775d9"
    }
  }, {
    "fullUrl": "MedicationStatement/d65d76bf4a1cb0d48d36911942737e91c10c9c8567f6deba6666555b3e8e6a88",
    "resource": {
      "resourceType": "MedicationStatement",
      "meta": {
        "profile": [ "https://www.netzwerk-universitaetsmedizin.de/fhir/StructureDefinition/pharmacological-therapy" ]
      },
      "identifier": [ {
        "system": "https://mein.krankenhaus.de/fhir/NamingSystem/medicationstatementId",
        "value": "cb3222af942f8d522461aa3c960db1863dda8b591c144ceccfa57a9c6520876a"
      } ],
      "status": "active",
      "medicationCodeableConcept": {
        "coding": [ {
          "system": "http://snomed.info/sct",
          "code": "41549009"
        } ],
        "text": "ACE inhibitors"
      },
      "subject": {
        "reference": "Patient/fb7433249e2539171013c8a104cb96cc85b44bd6fedaeff0cd61d2c73a3402f4"
      },
      "effectiveDateTime": "2020-02-13T19:37:00+00:00"
    },
    "request": {
      "method": "POST",
      "url": "MedicationStatement",
      "ifNoneExist": "identifier=https://mein.krankenhaus.de/fhir/NamingSystem/medicationstatementId|d65d76bf4a1cb0d48d36911942737e91c10c9c8567f6deba6666555b3e8e6a88"
    }
  }, {
    "fullUrl": "MedicationStatement/698876d81b80a2c3d7407e41954f1544e38ce7cec2e9b1d5c6b30e9449877c54",
    "resource": {
      "resourceType": "MedicationStatement",
      "meta": {
        "profile": [ "https://www.netzwerk-universitaetsmedizin.de/fhir/StructureDefinition/pharmacological-therapy" ]
      },
      "identifier": [ {
        "system": "https://mein.krankenhaus.de/fhir/NamingSystem/medicationstatementId",
        "value": "7edc56833e81c09c289900623ee071b78a038a245aa3fd6eade767de6f948f01"
      } ],
      "status": "active",
      "medicationCodeableConcept": {
        "coding": [ {
          "system": "http://snomed.info/sct",
          "code": "333710000"
        } ],
        "text": "immunoglobulins"
      },
      "subject": {
        "reference": "Patient/fb7433249e2539171013c8a104cb96cc85b44bd6fedaeff0cd61d2c73a3402f4"
      },
      "effectiveDateTime": "2020-02-13T19:37:00+00:00"
    },
    "request": {
      "method": "POST",
      "url": "MedicationStatement",
      "ifNoneExist": "identifier=https://mein.krankenhaus.de/fhir/NamingSystem/medicationstatementId|698876d81b80a2c3d7407e41954f1544e38ce7cec2e9b1d5c6b30e9449877c54"
    }
  }, {
    "fullUrl": "Observation/c879789da28c4097375d1bd5f105f8d6589588969cc0941cc46370add369a169",
    "resource": {
      "resourceType": "Observation",
      "meta": {
        "profile": [ "https://www.netzwerk-universitaetsmedizin.de/fhir/StructureDefinition/carbon-dioxide-partial-pressure" ]
      },
      "identifier": [ {
        "type": {
          "coding": [ {
            "system": "http://terminology.hl7.org/CodeSystem/v2-0203",
            "code": "OBI",
            "display": "Observation Instance Identifier"
          } ]
        },
        "system": "https://mein.krankenhaus.de/fhir/NamingSystem/observationId",
        "value": "2ae806b43d0ba9a47094ac1d96a094e85906d3d1c1fb5663b30c7da0770e0fe7",
        "assigner": {
          "reference": "Organization/3a4f3433bce81181bad2d8e0b8fafccf7dc800bc06f29be73dcb38b750a48f9a"
        }
      } ],
      "status": "final",
      "category": [ {
        "coding": [ {
          "system": "http://terminology.hl7.org/CodeSystem/observation-category",
          "code": "laboratory",
          "display": "Laboratory"
        }, {
          "system": "http://loinc.org",
          "code": "26436-6",
          "display": "Laboratory studies (set)"
        }, {
          "system": "http://loinc.org",
          "code": "18767-4",
          "display": "Blood gas studies (set)"
        } ]
      } ],
      "code": {
        "coding": [ {
          "system": "http://loinc.org",
          "code": "11557-6"
        } ],
        "text": "Carbon dioxide [Partial pressure] in blood"
      },
      "subject": {
        "reference": "Patient/fb7433249e2539171013c8a104cb96cc85b44bd6fedaeff0cd61d2c73a3402f4"
      },
      "encounter": {
        "reference": "Encounter/b50ca6bae511fdcb46808a467678c1ae0619e72c01b44162615d25408e65047e"
      },
      "effectiveDateTime": "2020-02-04T18:09:00+00:00",
      "valueQuantity": {
        "value": 37,
        "unit": "mmHg",
        "system": "http://unitsofmeasure.org",
        "code": "mm[Hg]"
      }
    },
    "request": {
      "method": "POST",
      "url": "Observation",
      "ifNoneExist": "identifier=https://mein.krankenhaus.de/fhir/NamingSystem/observationId|c879789da28c4097375d1bd5f105f8d6589588969cc0941cc46370add369a169"
    }
  }, {
    "fullUrl": "Observation/37f6d7eac10d99a970f81db035b9c15fa6acba07d75ae4da3a75f852060478e1",
    "resource": {
      "resourceType": "Observation",
      "meta": {
        "profile": [ "https://www.netzwerk-universitaetsmedizin.de/fhir/StructureDefinition/oxygen-partial-pressure" ]
      },
      "identifier": [ {
        "type": {
          "coding": [ {
            "system": "http://terminology.hl7.org/CodeSystem/v2-0203",
            "code": "OBI",
            "display": "Observation Instance Identifier"
          } ]
        },
        "system": "https://mein.krankenhaus.de/fhir/NamingSystem/observationId",
        "value": "9b9a45371c07a4d693682e26c4031bf274e1df966bf304718c7d35fca09002f1",
        "assigner": {
          "reference": "Organization/3a4f3433bce81181bad2d8e0b8fafccf7dc800bc06f29be73dcb38b750a48f9a"
        }
      } ],
      "status": "final",
      "category": [ {
        "coding": [ {
          "system": "http://terminology.hl7.org/CodeSystem/observation-category",
          "code": "laboratory",
          "display": "Laboratory"
        }, {
          "system": "http://loinc.org",
          "code": "26436-6",
          "display": "Laboratory studies (set)"
        }, {
          "system": "http://loinc.org",
          "code": "18767-4",
          "display": "Blood gas studies (set)"
        } ]
      } ],
      "code": {
        "coding": [ {
          "system": "http://loinc.org",
          "code": "11557-8"
        } ],
        "text": "Oxygen [Partial pressure] in blood"
      },
      "subject": {
        "reference": "Patient/fb7433249e2539171013c8a104cb96cc85b44bd6fedaeff0cd61d2c73a3402f4"
      },
      "encounter": {
        "reference": "Encounter/b50ca6bae511fdcb46808a467678c1ae0619e72c01b44162615d25408e65047e"
      },
      "effectiveDateTime": "2020-02-04T18:09:00+00:00",
      "valueQuantity": {
        "value": 59,
        "unit": "mmHg",
        "system": "http://unitsofmeasure.org",
        "code": "mm[Hg]"
      }
    },
    "request": {
      "method": "POST",
      "url": "Observation",
      "ifNoneExist": "identifier=https://mein.krankenhaus.de/fhir/NamingSystem/observationId|37f6d7eac10d99a970f81db035b9c15fa6acba07d75ae4da3a75f852060478e1"
    }
  }, {
    "fullUrl": "Observation/0bb6d6b195e04218070f57464bc9bf3c880db8967128cf779875855085af8dbb",
    "resource": {
      "resourceType": "Observation",
      "meta": {
        "profile": [ "https://www.netzwerk-universitaetsmedizin.de/fhir/StructureDefinition/inhaled-oxygen-concentration" ]
      },
      "identifier": [ {
        "type": {
          "coding": [ {
            "system": "http://terminology.hl7.org/CodeSystem/v2-0203",
            "code": "OBI",
            "display": "Observation Instance Identifier"
          } ]
        },
        "system": "https://mein.krankenhaus.de/fhir/NamingSystem/observationId",
        "value": "89f738df6c087163c146e6001b2249badc075c080d2b5ffc4c39564c69f097e6",
        "assigner": {
          "reference": "Organization/3a4f3433bce81181bad2d8e0b8fafccf7dc800bc06f29be73dcb38b750a48f9a"
        }
      } ],
      "status": "final",
      "category": [ {
        "coding": [ {
          "system": "http://terminology.hl7.org/CodeSystem/observation-category",
          "code": "laboratory",
          "display": "Laboratory"
        }, {
          "system": "http://loinc.org",
          "code": "26436-6",
          "display": "Laboratory studies (set)"
        }, {
          "system": "http://loinc.org",
          "code": "18767-4",
          "display": "Blood gas studies (set)"
        } ]
      } ],
      "code": {
        "coding": [ {
          "system": "http://loinc.org",
          "code": "3150-0"
        }, {
          "system": "http://snomed.info/sct",
          "code": "250774007"
        } ],
        "text": "Oxygen [Partial pressure] in blood"
      },
      "subject": {
        "reference": "Patient/fb7433249e2539171013c8a104cb96cc85b44bd6fedaeff0cd61d2c73a3402f4"
      },
      "encounter": {
        "reference": "Encounter/b50ca6bae511fdcb46808a467678c1ae0619e72c01b44162615d25408e65047e"
      },
      "effectiveDateTime": "2020-02-04T18:09:00+00:00",
      "valueQuantity": {
        "value": 24.489237278233787,
        "unit": "%",
        "system": "http://unitsofmeasure.org",
        "code": "%"
      }
    },
    "request": {
      "method": "POST",
      "url": "Observation",
      "ifNoneExist": "identifier=https://mein.krankenhaus.de/fhir/NamingSystem/observationId|0bb6d6b195e04218070f57464bc9bf3c880db8967128cf779875855085af8dbb"
    }
  }, {
    "fullUrl": "Observation/825884294526afd16402f4566e89d95120b7d2c77f96c881c31b2aabf6611f3f",
    "resource": {
      "resourceType": "Observation",
      "meta": {
        "profile": [ "https://www.netzwerk-universitaetsmedizin.de/fhir/StructureDefinition/pH" ]
      },
      "identifier": [ {
        "type": {
          "coding": [ {
            "system": "http://terminology.hl7.org/CodeSystem/v2-0203",
            "code": "OBI",
            "display": "Observation Instance Identifier"
          } ]
        },
        "system": "https://mein.krankenhaus.de/fhir/NamingSystem/observationId",
        "value": "027927f1ce7de50d52c7302c276eee656b3ab52b942dc307543498c2aaa4543c",
        "assigner": {
          "reference": "Organization/3a4f3433bce81181bad2d8e0b8fafccf7dc800bc06f29be73dcb38b750a48f9a"
        }
      } ],
      "status": "final",
      "category": [ {
        "coding": [ {
          "system": "http://terminology.hl7.org/CodeSystem/observation-category",
          "code": "laboratory",
          "display": "Laboratory"
        }, {
          "system": "http://loinc.org",
          "code": "26436-6",
          "display": "Laboratory studies (set)"
        }, {
          "system": "http://loinc.org",
          "code": "18767-4",
          "display": "Blood gas studies (set)"
        } ]
      } ],
      "code": {
        "coding": [ {
          "system": "http://loinc.org",
          "code": "11558-4"
        } ],
        "text": "pH of Blood"
      },
      "subject": {
        "reference": "Patient/fb7433249e2539171013c8a104cb96cc85b44bd6fedaeff0cd61d2c73a3402f4"
      },
      "encounter": {
        "reference": "Encounter/b50ca6bae511fdcb46808a467678c1ae0619e72c01b44162615d25408e65047e"
      },
      "effectiveDateTime": "2020-02-04T18:09:00+00:00",
      "valueQuantity": {
        "value": 2.0059618260677787,
        "unit": "pH",
        "system": "http://unitsofmeasure.org",
        "code": "[pH]"
      }
    },
    "request": {
      "method": "POST",
      "url": "Observation",
      "ifNoneExist": "identifier=https://mein.krankenhaus.de/fhir/NamingSystem/observationId|825884294526afd16402f4566e89d95120b7d2c77f96c881c31b2aabf6611f3f"
    }
  }, {
    "fullUrl": "Observation/1bcabc8b6d71375ad26774795a48437f152b8a40202607caece72a02349b6cae",
    "resource": {
      "resourceType": "Observation",
      "meta": {
        "profile": [ "https://www.netzwerk-universitaetsmedizin.de/fhir/StructureDefinition/sofa-score" ]
      },
      "identifier": [ {
        "type": {
          "coding": [ {
            "system": "http://terminology.hl7.org/CodeSystem/v2-0203",
            "code": "OBI",
            "display": "Observation Instance Identifier"
          } ]
        },
        "system": "https://mein.krankenhaus.de/fhir/NamingSystem/observationId",
        "value": "989d2ef84fee645ad7ba984489d3b52744a7148739adae91c42d5eb57c81ac51",
        "assigner": {
          "reference": "Organization/3a4f3433bce81181bad2d8e0b8fafccf7dc800bc06f29be73dcb38b750a48f9a"
        }
      } ],
      "status": "final",
      "category": [ {
        "coding": [ {
          "system": "http://terminology.hl7.org/CodeSystem/observation-category",
          "code": "survey",
          "display": "Survey"
        } ]
      } ],
      "code": {
        "coding": [ {
          "system": "https://www.netzwerk-universitaetsmedizin.de/fhir/CodeSystem/ecrf-parameter-codes",
          "code": "06",
          "display": "SOFA-Score"
        } ],
        "text": "Sepsis-related organ failure assessment score"
      },
      "subject": {
        "reference": "Patient/fb7433249e2539171013c8a104cb96cc85b44bd6fedaeff0cd61d2c73a3402f4"
      },
      "encounter": {
        "reference": "Encounter/b50ca6bae511fdcb46808a467678c1ae0619e72c01b44162615d25408e65047e"
      },
      "effectiveDateTime": "2020-02-04T18:09:00+00:00",
      "valueInteger": 5,
      "component": [ {
        "code": {
          "coding": [ {
            "system": "https://www.netzwerk-universitaetsmedizin.de/fhir/CodeSystem/sofa-score",
            "code": "resp",
            "display": "Respiratory system"
          } ],
          "text": "SOFA Respiratory system scoring category"
        },
        "valueCodeableConcept": {
          "coding": [ {
            "system": "https://www.netzwerk-universitaetsmedizin.de/fhir/CodeSystem/sofa-score",
            "code": "resp1",
            "display": "Respiratory system SOFA score 1"
          } ],
          "text": "PaO2/FiO2 [mmHg (kPa)] < 400 (53.3)"
        }
      }, {
        "code": {
          "coding": [ {
            "system": "https://www.netzwerk-universitaetsmedizin.de/fhir/CodeSystem/sofa-score",
            "code": "ns",
            "display": "Nervous system"
          } ],
          "text": "SOFA Nervous system scoring category"
        },
        "valueCodeableConcept": {
          "coding": [ {
            "system": "https://www.netzwerk-universitaetsmedizin.de/fhir/CodeSystem/sofa-score",
            "code": "ns2",
            "display": "Nervous system SOFA score 2"
          } ],
          "text": "Glasgow Coma Scale (GCS) 10-12"
        }
      }, {
        "code": {
          "coding": [ {
            "system": "https://www.netzwerk-universitaetsmedizin.de/fhir/CodeSystem/sofa-score",
            "code": "kid",
            "display": "Kidneys"
          } ],
          "text": "SOFA Kidneys scoring category"
        },
        "valueCodeableConcept": {
          "coding": [ {
            "system": "https://www.netzwerk-universitaetsmedizin.de/fhir/CodeSystem/sofa-score",
            "code": "kid0",
            "display": "Kidneys SOFA score 0"
          } ],
          "text": "Creatinine (mg/dl) [umol/L] (or urine output) < 1.2 [< 110]"
        }
      }, {
        "code": {
          "coding": [ {
            "system": "https://www.netzwerk-universitaetsmedizin.de/fhir/CodeSystem/sofa-score",
            "code": "cvs",
            "display": "Cardiovascular system"
          } ],
          "text": "SOFA Cardiovascular system scoring category"
        },
        "valueCodeableConcept": {
          "coding": [ {
            "system": "https://www.netzwerk-universitaetsmedizin.de/fhir/CodeSystem/sofa-score",
            "code": "cvs1",
            "display": "Cardiovascular system SOFA score 1"
          } ],
          "text": "Mean arterial pressure (definitions) < 70 mmHg"
        }
      }, {
        "code": {
          "coding": [ {
            "system": "https://www.netzwerk-universitaetsmedizin.de/fhir/CodeSystem/sofa-score",
            "code": "liv",
            "display": "Liver"
          } ],
          "text": "SOFA Liver scoring category"
        },
        "valueCodeableConcept": {
          "coding": [ {
            "system": "https://www.netzwerk-universitaetsmedizin.de/fhir/CodeSystem/sofa-score",
            "code": "liv1",
            "display": "Liver SOFA score 1"
          } ],
          "text": "Bilirubin (mg/dl) [umol/L] 1.2-1.9 [20-32]"
        }
      }, {
        "code": {
          "coding": [ {
            "system": "https://www.netzwerk-universitaetsmedizin.de/fhir/CodeSystem/sofa-score",
            "code": "coa",
            "display": "Coagulation"
          } ],
          "text": "SOFA Coagulation scoring category"
        },
        "valueCodeableConcept": {
          "coding": [ {
            "system": "https://www.netzwerk-universitaetsmedizin.de/fhir/CodeSystem/sofa-score",
            "code": "coa0",
            "display": "Coagulation SOFA score 0"
          } ],
          "text": "Platelets10^3/ul ? 150"
        }
      } ]
    },
    "request": {
      "method": "POST",
      "url": "Observation",
      "ifNoneExist": "identifier=https://mein.krankenhaus.de/fhir/NamingSystem/observationId|1bcabc8b6d71375ad26774795a48437f152b8a40202607caece72a02349b6cae"
    }
  }, {
    "fullUrl": "Observation/3b05163735d1eaa1c95ed3c854dac262bc918c42354e80533679eae9f947bc08",
    "resource": {
      "resourceType": "Observation",
      "meta": {
        "profile": [ "https://www.netzwerk-universitaetsmedizin.de/fhir/StructureDefinition/respiratory-rate" ]
      },
      "identifier": [ {
        "type": {
          "coding": [ {
            "system": "http://terminology.hl7.org/CodeSystem/v2-0203",
            "code": "OBI",
            "display": "Observation Instance Identifier"
          } ]
        },
        "system": "https://mein.krankenhaus.de/fhir/NamingSystem/observationId",
        "value": "9d56c0a78e638c563bb90e782a2d65d706ff59638496079356a6c968477c3ee2",
        "assigner": {
          "reference": "Organization/3a4f3433bce81181bad2d8e0b8fafccf7dc800bc06f29be73dcb38b750a48f9a"
        }
      } ],
      "status": "final",
      "category": [ {
        "coding": [ {
          "system": "http://terminology.hl7.org/CodeSystem/observation-category",
          "code": "vital-signs",
          "display": "Vital Signs"
        } ]
      } ],
      "code": {
        "coding": [ {
          "system": "http://loinc.org",
          "code": "9279-1"
        }, {
          "system": "http://snomed.info/sct",
          "code": "86290005"
        } ],
        "text": "Respiratory rate"
      },
      "subject": {
        "reference": "Patient/fb7433249e2539171013c8a104cb96cc85b44bd6fedaeff0cd61d2c73a3402f4"
      },
      "encounter": {
        "reference": "Encounter/b50ca6bae511fdcb46808a467678c1ae0619e72c01b44162615d25408e65047e"
      },
      "effectiveDateTime": "2020-02-04T18:09:00+00:00",
      "valueQuantity": {
        "value": 63,
        "unit": "per minute",
        "system": "http://unitsofmeasure.org",
        "code": "/min"
      }
    },
    "request": {
      "method": "POST",
      "url": "Observation",
      "ifNoneExist": "identifier=https://mein.krankenhaus.de/fhir/NamingSystem/observationId|3b05163735d1eaa1c95ed3c854dac262bc918c42354e80533679eae9f947bc08"
    }
  }, {
    "fullUrl": "Observation/b0cc98c670b946407e4fe2161147beb4657e4c075f0923b7aea7f3c2211cb176",
    "resource": {
      "resourceType": "Observation",
      "meta": {
        "profile": [ "https://www.netzwerk-universitaetsmedizin.de/fhir/StructureDefinition/blood-pressure" ]
      },
      "identifier": [ {
        "type": {
          "coding": [ {
            "system": "http://terminology.hl7.org/CodeSystem/v2-0203",
            "code": "OBI",
            "display": "Observation Instance Identifier"
          } ]
        },
        "system": "https://mein.krankenhaus.de/fhir/NamingSystem/observationId",
        "value": "59acb67f142211a729cfb6a5a18bb02b9bd473a2caf83a023576b306c17c9540",
        "assigner": {
          "reference": "Organization/3a4f3433bce81181bad2d8e0b8fafccf7dc800bc06f29be73dcb38b750a48f9a"
        }
      } ],
      "status": "final",
      "category": [ {
        "coding": [ {
          "system": "http://terminology.hl7.org/CodeSystem/observation-category",
          "code": "vital-signs",
          "display": "Vital Signs"
        } ]
      } ],
      "code": {
        "coding": [ {
          "system": "http://loinc.org",
          "code": "85354-9",
          "display": "Blood pressure panel with all children optional"
        }, {
          "system": "http://snomed.info/sct",
          "code": "75367002",
          "display": "Blood pressure (observable entity)"
        } ],
        "text": "Blood pressure"
      },
      "subject": {
        "reference": "Patient/fb7433249e2539171013c8a104cb96cc85b44bd6fedaeff0cd61d2c73a3402f4"
      },
      "encounter": {
        "reference": "Encounter/b50ca6bae511fdcb46808a467678c1ae0619e72c01b44162615d25408e65047e"
      },
      "effectiveDateTime": "2020-02-04T18:09:00+00:00",
      "component": [ {
        "code": {
          "coding": [ {
            "system": "http://loinc.org",
            "code": "8480-6"
          }, {
            "system": "http://snomed.info/sct",
            "code": "271649006"
          } ],
          "text": "Systolic blood pressure"
        },
        "valueQuantity": {
          "value": 138,
          "unit": "mmHg",
          "system": "http://unitsofmeasure.org",
          "code": "mm[Hg]"
        }
      }, {
        "code": {
          "coding": [ {
            "system": "http://loinc.org",
            "code": "8462-4"
          }, {
            "system": "http://snomed.info/sct",
            "code": "271650006"
          } ],
          "text": "Diastolic blood pressure"
        },
        "valueQuantity": {
          "value": 195,
          "unit": "mmHg",
          "system": "http://unitsofmeasure.org",
          "code": "mm[Hg]"
        }
      } ]
    },
    "request": {
      "method": "POST",
      "url": "Observation",
      "ifNoneExist": "identifier=https://mein.krankenhaus.de/fhir/NamingSystem/observationId|b0cc98c670b946407e4fe2161147beb4657e4c075f0923b7aea7f3c2211cb176"
    }
  }, {
    "fullUrl": "Observation/e1113d65f512803b22ae0b7617714fe895a4436d8018ea9695cd66c386b81e3a",
    "resource": {
      "resourceType": "Observation",
      "meta": {
        "profile": [ "https://www.netzwerk-universitaetsmedizin.de/fhir/StructureDefinition/heart-rate" ]
      },
      "identifier": [ {
        "type": {
          "coding": [ {
            "system": "http://terminology.hl7.org/CodeSystem/v2-0203",
            "code": "OBI",
            "display": "Observation Instance Identifier"
          } ]
        },
        "system": "https://mein.krankenhaus.de/fhir/NamingSystem/observationId",
        "value": "b9f329b37925ad9689f36abfa6fa5036fe0ab5c4df35b58ddd659f9f9035fa38",
        "assigner": {
          "reference": "Organization/3a4f3433bce81181bad2d8e0b8fafccf7dc800bc06f29be73dcb38b750a48f9a"
        }
      } ],
      "status": "final",
      "category": [ {
        "coding": [ {
          "system": "http://terminology.hl7.org/CodeSystem/observation-category",
          "code": "vital-signs",
          "display": "Vital Signs"
        } ]
      } ],
      "code": {
        "coding": [ {
          "system": "http://loinc.org",
          "code": "8867-4"
        }, {
          "system": "http://snomed.info/sct",
          "code": "364075005"
        } ],
        "text": "Heart rate"
      },
      "subject": {
        "reference": "Patient/fb7433249e2539171013c8a104cb96cc85b44bd6fedaeff0cd61d2c73a3402f4"
      },
      "encounter": {
        "reference": "Encounter/b50ca6bae511fdcb46808a467678c1ae0619e72c01b44162615d25408e65047e"
      },
      "effectiveDateTime": "2020-02-04T18:09:00+00:00",
      "valueQuantity": {
        "value": 35,
        "unit": "per minute",
        "system": "http://unitsofmeasure.org",
        "code": "/min"
      }
    },
    "request": {
      "method": "POST",
      "url": "Observation",
      "ifNoneExist": "identifier=https://mein.krankenhaus.de/fhir/NamingSystem/observationId|e1113d65f512803b22ae0b7617714fe895a4436d8018ea9695cd66c386b81e3a"
    }
  }, {
    "fullUrl": "Observation/f9177414e08d8085c848a5da732b0d6732448666cfd22699aa622e5fcb1d1272",
    "resource": {
      "resourceType": "Observation",
      "meta": {
        "profile": [ "https://www.netzwerk-universitaetsmedizin.de/fhir/StructureDefinition/body-temperature" ]
      },
      "identifier": [ {
        "type": {
          "coding": [ {
            "system": "http://terminology.hl7.org/CodeSystem/v2-0203",
            "code": "OBI",
            "display": "Observation Instance Identifier"
          } ]
        },
        "system": "https://mein.krankenhaus.de/fhir/NamingSystem/observationId",
        "value": "a9171f3af375b5e5503b98906d1b4a705657bb2a5b9e1ed387a20af025d4ddd9",
        "assigner": {
          "reference": "Organization/3a4f3433bce81181bad2d8e0b8fafccf7dc800bc06f29be73dcb38b750a48f9a"
        }
      } ],
      "status": "final",
      "category": [ {
        "coding": [ {
          "system": "http://terminology.hl7.org/CodeSystem/observation-category",
          "code": "vital-signs",
          "display": "Vital Signs"
        } ]
      } ],
      "code": {
        "coding": [ {
          "system": "http://loinc.org",
          "code": "8310-5"
        }, {
          "system": "http://snomed.info/sct",
          "code": "386725007"
        } ],
        "text": "Body temperature"
      },
      "subject": {
        "reference": "Patient/fb7433249e2539171013c8a104cb96cc85b44bd6fedaeff0cd61d2c73a3402f4"
      },
      "encounter": {
        "reference": "Encounter/b50ca6bae511fdcb46808a467678c1ae0619e72c01b44162615d25408e65047e"
      },
      "effectiveDateTime": "2020-02-04T18:09:00+00:00",
      "valueQuantity": {
        "value": 41.97108357932528,
        "unit": "C",
        "system": "http://unitsofmeasure.org",
        "code": "Cel"
      }
    },
    "request": {
      "method": "POST",
      "url": "Observation",
      "ifNoneExist": "identifier=https://mein.krankenhaus.de/fhir/NamingSystem/observationId|f9177414e08d8085c848a5da732b0d6732448666cfd22699aa622e5fcb1d1272"
    }
  }, {
    "fullUrl": "Observation/119999720ab0b085f7a7d785f03f1ad57439733c8872a0ccf1acedc75537e3a5",
    "resource": {
      "resourceType": "Observation",
      "meta": {
        "profile": [ "https://www.netzwerk-universitaetsmedizin.de/fhir/StructureDefinition/oxygen-saturation" ]
      },
      "identifier": [ {
        "type": {
          "coding": [ {
            "system": "http://terminology.hl7.org/CodeSystem/v2-0203",
            "code": "OBI",
            "display": "Observation Instance Identifier"
          } ]
        },
        "system": "https://mein.krankenhaus.de/fhir/NamingSystem/observationId",
        "value": "84e7c7b07410963d33209b4e6ec9e48f051a6268c872a92278281c37f9c6af6a",
        "assigner": {
          "reference": "Organization/3a4f3433bce81181bad2d8e0b8fafccf7dc800bc06f29be73dcb38b750a48f9a"
        }
      } ],
      "status": "final",
      "category": [ {
        "coding": [ {
          "system": "http://terminology.hl7.org/CodeSystem/observation-category",
          "code": "vital-signs",
          "display": "Vital Signs"
        } ]
      } ],
      "code": {
        "coding": [ {
          "system": "http://loinc.org",
          "code": "2708-6"
        }, {
          "system": "http://loinc.org",
          "code": "59408-5"
        }, {
          "system": "http://loinc.org",
          "code": "20564-1"
        }, {
          "system": "http://snomed.info/sct",
          "code": "431314004"
        } ],
        "text": "Oxygen saturation in Arterial blood"
      },
      "subject": {
        "reference": "Patient/fb7433249e2539171013c8a104cb96cc85b44bd6fedaeff0cd61d2c73a3402f4"
      },
      "encounter": {
        "reference": "Encounter/b50ca6bae511fdcb46808a467678c1ae0619e72c01b44162615d25408e65047e"
      },
      "effectiveDateTime": "2020-02-04T18:09:00+00:00",
      "valueQuantity": {
        "value": 54,
        "unit": "%",
        "system": "http://unitsofmeasure.org",
        "code": "%"
      }
    },
    "request": {
      "method": "POST",
      "url": "Observation",
      "ifNoneExist": "identifier=https://mein.krankenhaus.de/fhir/NamingSystem/observationId|119999720ab0b085f7a7d785f03f1ad57439733c8872a0ccf1acedc75537e3a5"
    }
  }, {
    "fullUrl": "Observation/974a89e1fc1205100dc06837d4e7eed0cc6e52dc1778aa83a5a727c71b525dba",
    "resource": {
      "resourceType": "Observation",
      "meta": {
        "profile": [ "https://www.netzwerk-universitaetsmedizin.de/fhir/StructureDefinition/study-inclusion-covid-19" ]
      },
      "identifier": [ {
        "type": {
          "coding": [ {
            "system": "http://terminology.hl7.org/CodeSystem/v2-0203",
            "code": "OBI",
            "display": "Observation Instance Identifier"
          } ]
        },
        "system": "https://mein.krankenhaus.de/fhir/NamingSystem/observationId",
        "value": "d1d576f9114629a91bfcc58caee25c9805cb031d46b0c08ec311eec567a85fe5",
        "assigner": {
          "reference": "Organization/3a4f3433bce81181bad2d8e0b8fafccf7dc800bc06f29be73dcb38b750a48f9a"
        }
      } ],
      "status": "final",
      "category": [ {
        "coding": [ {
          "system": "http://terminology.hl7.org/CodeSystem/observation-category",
          "code": "survey",
          "display": "Survey"
        } ]
      } ],
      "code": {
        "coding": [ {
          "system": "https://www.netzwerk-universitaetsmedizin.de/fhir/CodeSystem/ecrf-parameter-codes",
          "code": "02",
          "display": "Study inclusion due to Covid-19"
        } ],
        "text": "Confirmed Covid-19 diagnosis as main reason for enrolment in the study"
      },
      "subject": {
        "reference": "Patient/fb7433249e2539171013c8a104cb96cc85b44bd6fedaeff0cd61d2c73a3402f4"
      },
      "_effectiveDateTime": {
        "extension": [ {
          "url": "http://hl7.org/fhir/StructureDefinition/data-absent-reason",
          "valueCode": "unknown"
        } ]
      },
      "valueCodeableConcept": {
        "coding": [ {
          "system": "http://snomed.info/sct",
          "code": "373067005"
        } ]
      }
    },
    "request": {
      "method": "POST",
      "url": "Observation",
      "ifNoneExist": "identifier=https://mein.krankenhaus.de/fhir/NamingSystem/observationId|974a89e1fc1205100dc06837d4e7eed0cc6e52dc1778aa83a5a727c71b525dba"
    }
  }, {
    "fullUrl": "Observation/6d3e7692a60cfe7ce41e691b67b8aa02c49ce09a50bd97a1873a8548054bc2ec",
    "resource": {
      "resourceType": "Observation",
      "meta": {
        "profile": [ "https://www.netzwerk-universitaetsmedizin.de/fhir/StructureDefinition/interventional-clinical-trial-participation" ]
      },
      "identifier": [ {
        "type": {
          "coding": [ {
            "system": "http://terminology.hl7.org/CodeSystem/v2-0203",
            "code": "OBI",
            "display": "Observation Instance Identifier"
          } ]
        },
        "system": "https://mein.krankenhaus.de/fhir/NamingSystem/observationId",
        "value": "f16235c8dfeaea6946f9a5d789f580e378734738e05b28135e32f4ccfac8e3d0",
        "assigner": {
          "reference": "Organization/3a4f3433bce81181bad2d8e0b8fafccf7dc800bc06f29be73dcb38b750a48f9a"
        }
      } ],
      "status": "final",
      "category": [ {
        "coding": [ {
          "system": "http://terminology.hl7.org/CodeSystem/observation-category",
          "code": "survey",
          "display": "Survey"
        } ]
      } ],
      "code": {
        "coding": [ {
          "system": "https://www.netzwerk-universitaetsmedizin.de/fhir/CodeSystem/ecrf-parameter-codes",
          "code": "03",
          "display": "Participation in interventional clinical trials"
        } ],
        "text": "Has the patient participated in one or more interventional clinical trials?"
      },
      "subject": {
        "reference": "Patient/fb7433249e2539171013c8a104cb96cc85b44bd6fedaeff0cd61d2c73a3402f4"
      },
      "_effectiveDateTime": {
        "extension": [ {
          "url": "http://hl7.org/fhir/StructureDefinition/data-absent-reason",
          "valueCode": "unknown"
        } ]
      },
      "valueCodeableConcept": {
        "coding": [ {
          "system": "http://snomed.info/sct",
          "code": "373066001"
        } ]
      }
    },
    "request": {
      "method": "POST",
      "url": "Observation",
      "ifNoneExist": "identifier=https://mein.krankenhaus.de/fhir/NamingSystem/observationId|6d3e7692a60cfe7ce41e691b67b8aa02c49ce09a50bd97a1873a8548054bc2ec"
    }
  } ]
}