{
  "resourceType": "Bundle",
  "meta": {
    "profile": [ "https://www.netzwerk-universitaetsmedizin.de/fhir/StructureDefinition/gecco-bundle" ]
  },
  "type": "transaction",
  "entry": [ {
    "fullUrl": "Patient/388bf7d2cb8501bec8aec34b02c8ec24afd31a4b1d990748173f87fafcacb7e4",
    "resource": {
      "resourceType": "Patient",
      "meta": {
        "profile": [ "https://www.netzwerk-universitaetsmedizin.de/fhir/StructureDefinition/Patient" ]
      },
      "extension": [ {
        "url": "https://www.netzwerk-universitaetsmedizin.de/fhir/StructureDefinition/age",
        "extension": [ {
          "url": "dateTimeOfDocumentation",
          "_valueDateTime": {
            "extension": [ {
              "url": "http://hl7.org/fhir/StructureDefinition/data-absent-reason",
              "valueCode": "unknown"
            } ]
          }
        }, {
          "url": "age",
          "valueAge": {
            "value": 44,
            "unit": "years",
            "system": "http://unitsofmeasure.org",
            "code": "a"
          }
        } ]
      }, {
        "url": "https://www.netzwerk-universitaetsmedizin.de/fhir/StructureDefinition/ethnic-group",
        "valueCoding": {
          "system": "urn:oid:2.16.840.1.113883.6.238",
          "code": "2135-2"
        }
      } ],
      "identifier": [ {
        "type": {
          "coding": [ {
            "system": "http://terminology.hl7.org/CodeSystem/v2-0203",
            "code": "MR"
          } ]
        },
        "system": "https://mein.krankenhaus.de/fhir/NamingSystem/patientId",
        "value": "synthetic_patient_092765688",
        "assigner": {
          "reference": "Organization/3a4f3433bce81181bad2d8e0b8fafccf7dc800bc06f29be73dcb38b750a48f9a"
        }
      } ],
      "birthDate": "1976-02-08"
    },
    "request": {
      "method": "POST",
      "url": "Patient",
      "ifNoneExist": "identifier=https://mein.krankenhaus.de/fhir/NamingSystem/patientId|388bf7d2cb8501bec8aec34b02c8ec24afd31a4b1d990748173f87fafcacb7e4"
    }
  }, {
    "fullUrl": "Organization/3a4f3433bce81181bad2d8e0b8fafccf7dc800bc06f29be73dcb38b750a48f9a",
    "resource": {
      "resourceType": "Organization",
      "name": "Mein Krankenhaus"
    },
    "request": {
      "method": "POST",
      "url": "Organization",
      "ifNoneExist": "identifier=null|3a4f3433bce81181bad2d8e0b8fafccf7dc800bc06f29be73dcb38b750a48f9a"
    }
  }, {
    "fullUrl": "Encounter/d898144ecb5d517599f188a426ff42c53b3aeae6011f70d92012dcba0cb6877c",
    "resource": {
      "resourceType": "Encounter",
      "identifier": [ {
        "system": "https://mein.krankenhaus.de/fhir/NamingSystem/encounterId",
        "value": "487eeccd2c734daadfe238453a4247fd149179d96d4536728097fa36d6aee5c2",
        "assigner": {
          "reference": "Organization/3a4f3433bce81181bad2d8e0b8fafccf7dc800bc06f29be73dcb38b750a48f9a"
        }
      } ],
      "status": "unknown",
      "class": {
        "system": "http://terminology.hl7.org/CodeSystem/v3-ActCode",
        "code": "IMP",
        "display": "inpatient encounter"
      },
      "subject": {
        "reference": "Patient/388bf7d2cb8501bec8aec34b02c8ec24afd31a4b1d990748173f87fafcacb7e4"
      }
    },
    "request": {
      "method": "POST",
      "url": "Encounter",
      "ifNoneExist": "identifier=https://mein.krankenhaus.de/fhir/NamingSystem/encounterId|d898144ecb5d517599f188a426ff42c53b3aeae6011f70d92012dcba0cb6877c"
    }
  }, {
    "fullUrl": "Condition/4e956c5f3a7a4da0ef56497e262f59b5119d6fa933d5735f5366361376e38461",
    "resource": {
      "resourceType": "Condition",
      "meta": {
        "profile": [ "https://www.netzwerk-universitaetsmedizin.de/fhir/StructureDefinition/diagnosis-covid-19" ]
      },
      "identifier": [ {
        "system": "https://mein.krankenhaus.de/fhir/NamingSystem/conditionId",
        "value": "af6858e3a0c4a768f95895a4c65d2653cad790190226903b7aca01a3a7fff16a"
      } ],
      "clinicalStatus": {
        "coding": [ {
          "system": "http://terminology.hl7.org/CodeSystem/condition-clinical",
          "code": "active",
          "display": "Active"
        } ]
      },
      "verificationStatus": {
        "coding": [ {
          "system": "http://terminology.hl7.org/CodeSystem/condition-ver-status",
          "code": "confirmed",
          "display": "Confirmed"
        }, {
          "system": "http://snomed.info/sct",
          "code": "410605003",
          "display": "Confirmed present (qualifier value)"
        } ]
      },
      "category": [ {
        "coding": [ {
          "system": "http://snomed.info/sct",
          "code": "394807007",
          "display": "Infectious diseases (specialty) (qualifier value)"
        } ]
      } ],
      "code": {
        "coding": [ {
          "system": "http://snomed.info/sct",
          "code": "840539006",
          "display": "Disease caused by Severe acute respiratory syndrome coronavirus 2 (disorder)"
        } ]
      },
      "subject": {
        "reference": "Patient/388bf7d2cb8501bec8aec34b02c8ec24afd31a4b1d990748173f87fafcacb7e4"
      },
      "encounter": {
        "reference": "Encounter/d898144ecb5d517599f188a426ff42c53b3aeae6011f70d92012dcba0cb6877c"
      },
      "_recordedDate": {
        "extension": [ {
          "url": "http://hl7.org/fhir/StructureDefinition/data-absent-reason",
          "valueCode": "unknown"
        } ]
      },
      "stage": [ {
        "summary": {
          "coding": [ {
            "system": "http://snomed.info/sct",
            "code": "261665006"
          } ]
        },
        "type": {
          "coding": [ {
            "system": "http://loinc.org",
            "code": "88859-4"
          } ]
        }
      } ]
    },
    "request": {
      "method": "POST",
      "url": "Condition",
      "ifNoneExist": "identifier=https://mein.krankenhaus.de/fhir/NamingSystem/conditionId|4e956c5f3a7a4da0ef56497e262f59b5119d6fa933d5735f5366361376e38461"
    }
  }, {
    "fullUrl": "Condition/09e3f073a4cd15fda47cd92fb37e5769f9ce4ebdc2ce62790f22bba06a732ff6",
    "resource": {
      "resourceType": "Condition",
      "meta": {
        "profile": [ "https://www.netzwerk-universitaetsmedizin.de/fhir/StructureDefinition/chronic-liver-diseases" ]
      },
      "identifier": [ {
        "system": "https://mein.krankenhaus.de/fhir/NamingSystem/conditionId",
        "value": "e649455af779fa4e74676d7695a13b8a9869a8fa8b31cc18eb8d3fca9f0954fa"
      } ],
      "verificationStatus": {
        "coding": [ {
          "system": "http://terminology.hl7.org/CodeSystem/condition-ver-status",
          "code": "refuted",
          "display": "Refuted"
        }, {
          "system": "http://snomed.info/sct",
          "code": "410594000",
          "display": "Definitely NOT present (qualifier value)"
        } ]
      },
      "category": [ {
        "coding": [ {
          "system": "http://snomed.info/sct",
          "code": "408472002",
          "display": "Hepatology (qualifier value)"
        } ]
      } ],
      "code": {
        "coding": [ {
          "system": "http://fhir.de/CodeSystem/dimdi/icd-10-gm",
          "version": "2021",
          "code": "K74.6"
        }, {
          "system": "http://snomed.info/sct",
          "code": "19943007"
        } ]
      },
      "subject": {
        "reference": "Patient/388bf7d2cb8501bec8aec34b02c8ec24afd31a4b1d990748173f87fafcacb7e4"
      },
      "encounter": {
        "reference": "Encounter/d898144ecb5d517599f188a426ff42c53b3aeae6011f70d92012dcba0cb6877c"
      },
      "_recordedDate": {
        "extension": [ {
          "url": "http://hl7.org/fhir/StructureDefinition/data-absent-reason",
          "valueCode": "unknown"
        } ]
      }
    },
    "request": {
      "method": "POST",
      "url": "Condition",
      "ifNoneExist": "identifier=https://mein.krankenhaus.de/fhir/NamingSystem/conditionId|09e3f073a4cd15fda47cd92fb37e5769f9ce4ebdc2ce62790f22bba06a732ff6"
    }
  }, {
    "fullUrl": "Condition/0ae60cc1927609b454d1c859119122f342bde38a768948bf9ce6d0e0d0dd88c1",
    "resource": {
      "resourceType": "Condition",
      "meta": {
        "profile": [ "https://www.netzwerk-universitaetsmedizin.de/fhir/StructureDefinition/chronic-liver-diseases" ]
      },
      "modifierExtension": [ {
        "url": "https://www.netzwerk-universitaetsmedizin.de/fhir/StructureDefinition/uncertainty-of-presence",
        "valueCodeableConcept": {
          "coding": [ {
            "system": "http://snomed.info/sct",
            "code": "261665006",
            "display": "Unknown (qualifier value)"
          } ],
          "text": "Presence unknown."
        }
      } ],
      "identifier": [ {
        "system": "https://mein.krankenhaus.de/fhir/NamingSystem/conditionId",
        "value": "cfafc32992dd50721d3e06ddfe384cd141912983eb14ae6927976bcce66e4030"
      } ],
      "category": [ {
        "coding": [ {
          "system": "http://snomed.info/sct",
          "code": "408472002",
          "display": "Hepatology (qualifier value)"
        } ]
      } ],
      "code": {
        "coding": [ {
          "system": "http://fhir.de/CodeSystem/dimdi/icd-10-gm",
          "version": "2021",
          "code": "B18.9"
        }, {
          "system": "http://snomed.info/sct",
          "code": "10295004"
        } ]
      },
      "subject": {
        "reference": "Patient/388bf7d2cb8501bec8aec34b02c8ec24afd31a4b1d990748173f87fafcacb7e4"
      },
      "encounter": {
        "reference": "Encounter/d898144ecb5d517599f188a426ff42c53b3aeae6011f70d92012dcba0cb6877c"
      },
      "_recordedDate": {
        "extension": [ {
          "url": "http://hl7.org/fhir/StructureDefinition/data-absent-reason",
          "valueCode": "unknown"
        } ]
      }
    },
    "request": {
      "method": "POST",
      "url": "Condition",
      "ifNoneExist": "identifier=https://mein.krankenhaus.de/fhir/NamingSystem/conditionId|0ae60cc1927609b454d1c859119122f342bde38a768948bf9ce6d0e0d0dd88c1"
    }
  }, {
    "fullUrl": "Condition/1207f941108a4ff9c2837d06fdff85771c1e0032e6f479d349a61f50fad0ef28",
    "resource": {
      "resourceType": "Condition",
      "meta": {
        "profile": [ "https://www.netzwerk-universitaetsmedizin.de/fhir/StructureDefinition/chronic-liver-diseases" ]
      },
      "identifier": [ {
        "system": "https://mein.krankenhaus.de/fhir/NamingSystem/conditionId",
        "value": "73f55ced60a13c7f98cd1ef80a4f79300e062f2c72a74b0722546e084f9fd768"
      } ],
      "verificationStatus": {
        "coding": [ {
          "system": "http://terminology.hl7.org/CodeSystem/condition-ver-status",
          "code": "refuted",
          "display": "Refuted"
        }, {
          "system": "http://snomed.info/sct",
          "code": "410594000",
          "display": "Definitely NOT present (qualifier value)"
        } ]
      },
      "category": [ {
        "coding": [ {
          "system": "http://snomed.info/sct",
          "code": "408472002",
          "display": "Hepatology (qualifier value)"
        } ]
      } ],
      "code": {
        "coding": [ {
          "system": "http://snomed.info/sct",
          "code": "235890007"
        } ]
      },
      "subject": {
        "reference": "Patient/388bf7d2cb8501bec8aec34b02c8ec24afd31a4b1d990748173f87fafcacb7e4"
      },
      "encounter": {
        "reference": "Encounter/d898144ecb5d517599f188a426ff42c53b3aeae6011f70d92012dcba0cb6877c"
      },
      "_recordedDate": {
        "extension": [ {
          "url": "http://hl7.org/fhir/StructureDefinition/data-absent-reason",
          "valueCode": "unknown"
        } ]
      }
    },
    "request": {
      "method": "POST",
      "url": "Condition",
      "ifNoneExist": "identifier=https://mein.krankenhaus.de/fhir/NamingSystem/conditionId|1207f941108a4ff9c2837d06fdff85771c1e0032e6f479d349a61f50fad0ef28"
    }
  }, {
    "fullUrl": "Condition/3496ad8eb7a4c75d71467e15d6c2b7fe0834b084c17035a56c7d0209932152b6",
    "resource": {
      "resourceType": "Condition",
      "meta": {
        "profile": [ "https://www.netzwerk-universitaetsmedizin.de/fhir/StructureDefinition/chronic-liver-diseases" ]
      },
      "identifier": [ {
        "system": "https://mein.krankenhaus.de/fhir/NamingSystem/conditionId",
        "value": "80b6c7a2fca97f0bd7bb2c933b80e88704bf6bd705a45de61aaa99ddace91f1a"
      } ],
      "verificationStatus": {
        "coding": [ {
          "system": "http://terminology.hl7.org/CodeSystem/condition-ver-status",
          "code": "refuted",
          "display": "Refuted"
        }, {
          "system": "http://snomed.info/sct",
          "code": "410594000",
          "display": "Definitely NOT present (qualifier value)"
        } ]
      },
      "category": [ {
        "coding": [ {
          "system": "http://snomed.info/sct",
          "code": "408472002",
          "display": "Hepatology (qualifier value)"
        } ]
      } ],
      "code": {
        "coding": [ {
          "system": "http://fhir.de/CodeSystem/dimdi/icd-10-gm",
          "version": "2021",
          "code": "K76.9"
        }, {
          "system": "http://snomed.info/sct",
          "code": "328383001"
        } ]
      },
      "subject": {
        "reference": "Patient/388bf7d2cb8501bec8aec34b02c8ec24afd31a4b1d990748173f87fafcacb7e4"
      },
      "encounter": {
        "reference": "Encounter/d898144ecb5d517599f188a426ff42c53b3aeae6011f70d92012dcba0cb6877c"
      },
      "_recordedDate": {
        "extension": [ {
          "url": "http://hl7.org/fhir/StructureDefinition/data-absent-reason",
          "valueCode": "unknown"
        } ]
      }
    },
    "request": {
      "method": "POST",
      "url": "Condition",
      "ifNoneExist": "identifier=https://mein.krankenhaus.de/fhir/NamingSystem/conditionId|3496ad8eb7a4c75d71467e15d6c2b7fe0834b084c17035a56c7d0209932152b6"
    }
  }, {
    "fullUrl": "Condition/e6b6bdb1984c4c3b50712c97c38e68ca3058fbd27689c9ad4c11aa4ea99dbc2f",
    "resource": {
      "resourceType": "Condition",
      "meta": {
        "profile": [ "https://www.netzwerk-universitaetsmedizin.de/fhir/StructureDefinition/rheumatological-immunological-diseases" ]
      },
      "modifierExtension": [ {
        "url": "https://www.netzwerk-universitaetsmedizin.de/fhir/StructureDefinition/uncertainty-of-presence",
        "valueCodeableConcept": {
          "coding": [ {
            "system": "http://snomed.info/sct",
            "code": "261665006",
            "display": "Unknown (qualifier value)"
          } ],
          "text": "Presence unknown."
        }
      } ],
      "identifier": [ {
        "system": "https://mein.krankenhaus.de/fhir/NamingSystem/conditionId",
        "value": "ae1d9091a2f913f25b25b38edd1a6a9f2f288e48ceb369bceebbc02f58d196f5"
      } ],
      "category": [ {
        "coding": [ {
          "system": "http://snomed.info/sct",
          "code": "394810000",
          "display": "Rheumatology (qualifier value)"
        }, {
          "system": "http://snomed.info/sct",
          "code": "408480009",
          "display": "Clinical immunology (qualifier value)"
        } ]
      } ],
      "code": {
        "coding": [ {
          "system": "http://fhir.de/CodeSystem/dimdi/icd-10-gm",
          "version": "2021",
          "code": "K52.9"
        }, {
          "system": "http://snomed.info/sct",
          "code": "24526004"
        } ]
      },
      "subject": {
        "reference": "Patient/388bf7d2cb8501bec8aec34b02c8ec24afd31a4b1d990748173f87fafcacb7e4"
      },
      "encounter": {
        "reference": "Encounter/d898144ecb5d517599f188a426ff42c53b3aeae6011f70d92012dcba0cb6877c"
      },
      "_recordedDate": {
        "extension": [ {
          "url": "http://hl7.org/fhir/StructureDefinition/data-absent-reason",
          "valueCode": "unknown"
        } ]
      }
    },
    "request": {
      "method": "POST",
      "url": "Condition",
      "ifNoneExist": "identifier=https://mein.krankenhaus.de/fhir/NamingSystem/conditionId|e6b6bdb1984c4c3b50712c97c38e68ca3058fbd27689c9ad4c11aa4ea99dbc2f"
    }
  }, {
    "fullUrl": "Condition/3503106a6afaf34c207a1a9c4e993da606a75bbfac1d5b0596600a3ffe23a341",
    "resource": {
      "resourceType": "Condition",
      "meta": {
        "profile": [ "https://www.netzwerk-universitaetsmedizin.de/fhir/StructureDefinition/rheumatological-immunological-diseases" ]
      },
      "identifier": [ {
        "system": "https://mein.krankenhaus.de/fhir/NamingSystem/conditionId",
        "value": "e92afb334caa24cf8fe6afebeab55763993832b5c7211244743c9be95a6c890a"
      } ],
      "clinicalStatus": {
        "coding": [ {
          "system": "http://terminology.hl7.org/CodeSystem/condition-clinical",
          "code": "active",
          "display": "Active"
        } ]
      },
      "verificationStatus": {
        "coding": [ {
          "system": "http://terminology.hl7.org/CodeSystem/condition-ver-status",
          "code": "confirmed",
          "display": "Confirmed"
        }, {
          "system": "http://snomed.info/sct",
          "code": "410605003",
          "display": "Confirmed present (qualifier value)"
        } ]
      },
      "category": [ {
        "coding": [ {
          "system": "http://snomed.info/sct",
          "code": "394810000",
          "display": "Rheumatology (qualifier value)"
        }, {
          "system": "http://snomed.info/sct",
          "code": "408480009",
          "display": "Clinical immunology (qualifier value)"
        } ]
      } ],
      "code": {
        "coding": [ {
          "system": "http://fhir.de/CodeSystem/dimdi/icd-10-gm",
          "version": "2021",
          "code": "M06.99"
        }, {
          "system": "http://snomed.info/sct",
          "code": "69896004"
        } ]
      },
      "subject": {
        "reference": "Patient/388bf7d2cb8501bec8aec34b02c8ec24afd31a4b1d990748173f87fafcacb7e4"
      },
      "encounter": {
        "reference": "Encounter/d898144ecb5d517599f188a426ff42c53b3aeae6011f70d92012dcba0cb6877c"
      },
      "_recordedDate": {
        "extension": [ {
          "url": "http://hl7.org/fhir/StructureDefinition/data-absent-reason",
          "valueCode": "unknown"
        } ]
      }
    },
    "request": {
      "method": "POST",
      "url": "Condition",
      "ifNoneExist": "identifier=https://mein.krankenhaus.de/fhir/NamingSystem/conditionId|3503106a6afaf34c207a1a9c4e993da606a75bbfac1d5b0596600a3ffe23a341"
    }
  }, {
    "fullUrl": "Condition/eb4ab948b477fe326c670393a8c40edc37ffe5cec7ab9d25463e690860cc6341",
    "resource": {
      "resourceType": "Condition",
      "meta": {
        "profile": [ "https://www.netzwerk-universitaetsmedizin.de/fhir/StructureDefinition/rheumatological-immunological-diseases" ]
      },
      "identifier": [ {
        "system": "https://mein.krankenhaus.de/fhir/NamingSystem/conditionId",
        "value": "60b30ebf076fe36323ae9fce2220c39a225782c05fb0051a0386e1e492c087c8"
      } ],
      "verificationStatus": {
        "coding": [ {
          "system": "http://terminology.hl7.org/CodeSystem/condition-ver-status",
          "code": "refuted",
          "display": "Refuted"
        }, {
          "system": "http://snomed.info/sct",
          "code": "410594000",
          "display": "Definitely NOT present (qualifier value)"
        } ]
      },
      "category": [ {
        "coding": [ {
          "system": "http://snomed.info/sct",
          "code": "394810000",
          "display": "Rheumatology (qualifier value)"
        }, {
          "system": "http://snomed.info/sct",
          "code": "408480009",
          "display": "Clinical immunology (qualifier value)"
        } ]
      } ],
      "code": {
        "coding": [ {
          "system": "http://fhir.de/CodeSystem/dimdi/icd-10-gm",
          "version": "2021",
          "code": "M35.9"
        }, {
          "system": "http://snomed.info/sct",
          "code": "105969002"
        } ]
      },
      "subject": {
        "reference": "Patient/388bf7d2cb8501bec8aec34b02c8ec24afd31a4b1d990748173f87fafcacb7e4"
      },
      "encounter": {
        "reference": "Encounter/d898144ecb5d517599f188a426ff42c53b3aeae6011f70d92012dcba0cb6877c"
      },
      "_recordedDate": {
        "extension": [ {
          "url": "http://hl7.org/fhir/StructureDefinition/data-absent-reason",
          "valueCode": "unknown"
        } ]
      }
    },
    "request": {
      "method": "POST",
      "url": "Condition",
      "ifNoneExist": "identifier=https://mein.krankenhaus.de/fhir/NamingSystem/conditionId|eb4ab948b477fe326c670393a8c40edc37ffe5cec7ab9d25463e690860cc6341"
    }
  }, {
    "fullUrl": "Condition/4accadd96af8f226f4d649d636e5cfc4d00ee5d4fac6898e28478822453c60c2",
    "resource": {
      "resourceType": "Condition",
      "meta": {
        "profile": [ "https://www.netzwerk-universitaetsmedizin.de/fhir/StructureDefinition/rheumatological-immunological-diseases" ]
      },
      "modifierExtension": [ {
        "url": "https://www.netzwerk-universitaetsmedizin.de/fhir/StructureDefinition/uncertainty-of-presence",
        "valueCodeableConcept": {
          "coding": [ {
            "system": "http://snomed.info/sct",
            "code": "261665006",
            "display": "Unknown (qualifier value)"
          } ],
          "text": "Presence unknown."
        }
      } ],
      "identifier": [ {
        "system": "https://mein.krankenhaus.de/fhir/NamingSystem/conditionId",
        "value": "1fe1c9c176bc78b53460349db5b7322a544d2cd69234370236d9c3017257b1a9"
      } ],
      "category": [ {
        "coding": [ {
          "system": "http://snomed.info/sct",
          "code": "394810000",
          "display": "Rheumatology (qualifier value)"
        }, {
          "system": "http://snomed.info/sct",
          "code": "408480009",
          "display": "Clinical immunology (qualifier value)"
        } ]
      } ],
      "code": {
        "coding": [ {
          "system": "http://fhir.de/CodeSystem/dimdi/icd-10-gm",
          "version": "2021",
          "code": "I77.6"
        }, {
          "system": "http://snomed.info/sct",
          "code": "31996006"
        } ]
      },
      "subject": {
        "reference": "Patient/388bf7d2cb8501bec8aec34b02c8ec24afd31a4b1d990748173f87fafcacb7e4"
      },
      "encounter": {
        "reference": "Encounter/d898144ecb5d517599f188a426ff42c53b3aeae6011f70d92012dcba0cb6877c"
      },
      "_recordedDate": {
        "extension": [ {
          "url": "http://hl7.org/fhir/StructureDefinition/data-absent-reason",
          "valueCode": "unknown"
        } ]
      }
    },
    "request": {
      "method": "POST",
      "url": "Condition",
      "ifNoneExist": "identifier=https://mein.krankenhaus.de/fhir/NamingSystem/conditionId|4accadd96af8f226f4d649d636e5cfc4d00ee5d4fac6898e28478822453c60c2"
    }
  }, {
    "fullUrl": "Condition/243139f198fadabe28c4f88d07054f479653093d8a4fd7394e32ab1f79241896",
    "resource": {
      "resourceType": "Condition",
      "meta": {
        "profile": [ "https://www.netzwerk-universitaetsmedizin.de/fhir/StructureDefinition/rheumatological-immunological-diseases" ]
      },
      "identifier": [ {
        "system": "https://mein.krankenhaus.de/fhir/NamingSystem/conditionId",
        "value": "55a44b4dc95377317a1ee2b1e87e0b8020d5c9c1675cb059a4d1a53fa4c88645"
      } ],
      "clinicalStatus": {
        "coding": [ {
          "system": "http://terminology.hl7.org/CodeSystem/condition-clinical",
          "code": "active",
          "display": "Active"
        } ]
      },
      "verificationStatus": {
        "coding": [ {
          "system": "http://terminology.hl7.org/CodeSystem/condition-ver-status",
          "code": "confirmed",
          "display": "Confirmed"
        }, {
          "system": "http://snomed.info/sct",
          "code": "410605003",
          "display": "Confirmed present (qualifier value)"
        } ]
      },
      "category": [ {
        "coding": [ {
          "system": "http://snomed.info/sct",
          "code": "394810000",
          "display": "Rheumatology (qualifier value)"
        }, {
          "system": "http://snomed.info/sct",
          "code": "408480009",
          "display": "Clinical immunology (qualifier value)"
        } ]
      } ],
      "code": {
        "coding": [ {
          "system": "http://fhir.de/CodeSystem/dimdi/icd-10-gm",
          "version": "2021",
          "code": "D84.8"
        }, {
          "system": "http://snomed.info/sct",
          "code": "396332003+414029004"
        } ]
      },
      "subject": {
        "reference": "Patient/388bf7d2cb8501bec8aec34b02c8ec24afd31a4b1d990748173f87fafcacb7e4"
      },
      "encounter": {
        "reference": "Encounter/d898144ecb5d517599f188a426ff42c53b3aeae6011f70d92012dcba0cb6877c"
      },
      "_recordedDate": {
        "extension": [ {
          "url": "http://hl7.org/fhir/StructureDefinition/data-absent-reason",
          "valueCode": "unknown"
        } ]
      }
    },
    "request": {
      "method": "POST",
      "url": "Condition",
      "ifNoneExist": "identifier=https://mein.krankenhaus.de/fhir/NamingSystem/conditionId|243139f198fadabe28c4f88d07054f479653093d8a4fd7394e32ab1f79241896"
    }
  }, {
    "fullUrl": "Condition/3502c5582349043ad7f3d1dee014161cc4e181890fe46d24564a97cbd46559ca",
    "resource": {
      "resourceType": "Condition",
      "meta": {
        "profile": [ "https://www.netzwerk-universitaetsmedizin.de/fhir/StructureDefinition/human-immunodeficiency-virus-infection" ]
      },
      "identifier": [ {
        "system": "https://mein.krankenhaus.de/fhir/NamingSystem/conditionId",
        "value": "b7d9614c0e8465ecf0d4c4a9462e99618bb21a28d6fb3ca35e11cce59621f359"
      } ],
      "clinicalStatus": {
        "coding": [ {
          "system": "http://terminology.hl7.org/CodeSystem/condition-clinical",
          "code": "active",
          "display": "Active"
        } ]
      },
      "verificationStatus": {
        "coding": [ {
          "system": "http://terminology.hl7.org/CodeSystem/condition-ver-status",
          "code": "confirmed",
          "display": "Confirmed"
        }, {
          "system": "http://snomed.info/sct",
          "code": "410605003",
          "display": "Confirmed present (qualifier value)"
        } ]
      },
      "category": [ {
        "coding": [ {
          "system": "http://snomed.info/sct",
          "code": "394807007",
          "display": "Infectious diseases (specialty) (qualifier value)"
        } ]
      } ],
      "code": {
        "coding": [ {
          "system": "http://fhir.de/CodeSystem/dimdi/icd-10-gm",
          "version": "2021",
          "code": "B24"
        }, {
          "system": "http://snomed.info/sct",
          "code": "86406008"
        } ]
      },
      "subject": {
        "reference": "Patient/388bf7d2cb8501bec8aec34b02c8ec24afd31a4b1d990748173f87fafcacb7e4"
      },
      "encounter": {
        "reference": "Encounter/d898144ecb5d517599f188a426ff42c53b3aeae6011f70d92012dcba0cb6877c"
      },
      "_recordedDate": {
        "extension": [ {
          "url": "http://hl7.org/fhir/StructureDefinition/data-absent-reason",
          "valueCode": "unknown"
        } ]
      }
    },
    "request": {
      "method": "POST",
      "url": "Condition",
      "ifNoneExist": "identifier=https://mein.krankenhaus.de/fhir/NamingSystem/conditionId|3502c5582349043ad7f3d1dee014161cc4e181890fe46d24564a97cbd46559ca"
    }
  }, {
    "fullUrl": "Condition/8140f56cf60f7a343fa510aa2daead7a0f07e0ff19de42ac63d492fcaf90e685",
    "resource": {
      "resourceType": "Condition",
      "meta": {
        "profile": [ "https://www.netzwerk-universitaetsmedizin.de/fhir/StructureDefinition/diabetes-mellitus" ]
      },
      "identifier": [ {
        "system": "https://mein.krankenhaus.de/fhir/NamingSystem/conditionId",
        "value": "4b17661361eca9ca9a80960b42c6296571c39b188178f0803fc0a33736cbc56b"
      } ],
      "verificationStatus": {
        "coding": [ {
          "system": "http://terminology.hl7.org/CodeSystem/condition-ver-status",
          "code": "confirmed",
          "display": "Confirmed"
        }, {
          "system": "http://snomed.info/sct",
          "code": "410605003",
          "display": "Confirmed present (qualifier value)"
        } ]
      },
      "category": [ {
        "coding": [ {
          "system": "http://snomed.info/sct",
          "code": "408475000",
          "display": "Diabetic medicine (qualifier value)"
        } ]
      } ],
      "code": {
        "coding": [ {
          "system": "http://fhir.de/CodeSystem/dimdi/icd-10-gm",
          "version": "2021",
          "code": "E10.9"
        }, {
          "system": "http://snomed.info/sct",
          "code": "46635009"
        } ]
      },
      "subject": {
        "reference": "Patient/388bf7d2cb8501bec8aec34b02c8ec24afd31a4b1d990748173f87fafcacb7e4"
      },
      "encounter": {
        "reference": "Encounter/d898144ecb5d517599f188a426ff42c53b3aeae6011f70d92012dcba0cb6877c"
      },
      "_recordedDate": {
        "extension": [ {
          "url": "http://hl7.org/fhir/StructureDefinition/data-absent-reason",
          "valueCode": "unknown"
        } ]
      }
    },
    "request": {
      "method": "POST",
      "url": "Condition",
      "ifNoneExist": "identifier=https://mein.krankenhaus.de/fhir/NamingSystem/conditionId|8140f56cf60f7a343fa510aa2daead7a0f07e0ff19de42ac63d492fcaf90e685"
    }
  }, {
    "fullUrl": "Condition/b733391a8c10db0d2aff3ebce993fdeea11bd117ca06543e0adf43c33e706991",
    "resource": {
      "resourceType": "Condition",
      "meta": {
        "profile": [ "https://www.netzwerk-universitaetsmedizin.de/fhir/StructureDefinition/malignant-neoplastic-disease" ]
      },
      "identifier": [ {
        "system": "https://mein.krankenhaus.de/fhir/NamingSystem/conditionId",
        "value": "b792697438b5710a72f03a5a02afc3dfb7ba82d92b942e7bbd0cec997b5a33ba"
      } ],
      "clinicalStatus": {
        "coding": [ {
          "system": "http://terminology.hl7.org/CodeSystem/condition-clinical",
          "code": "active",
          "display": "Active"
        } ]
      },
      "verificationStatus": {
        "coding": [ {
          "system": "http://terminology.hl7.org/CodeSystem/condition-ver-status",
          "code": "confirmed",
          "display": "Confirmed"
        }, {
          "system": "http://snomed.info/sct",
          "code": "410605003",
          "display": "Confirmed present (qualifier value)"
        } ]
      },
      "category": [ {
        "coding": [ {
          "system": "http://snomed.info/sct",
          "code": "394593009",
          "display": "Medical oncology (qualifier value)"
        } ]
      } ],
      "code": {
        "coding": [ {
          "system": "http://fhir.de/CodeSystem/dimdi/icd-10-gm",
          "version": "2021",
          "code": "C80.9"
        }, {
          "system": "http://snomed.info/sct",
          "code": "363346000"
        } ]
      },
      "subject": {
        "reference": "Patient/388bf7d2cb8501bec8aec34b02c8ec24afd31a4b1d990748173f87fafcacb7e4"
      },
      "encounter": {
        "reference": "Encounter/d898144ecb5d517599f188a426ff42c53b3aeae6011f70d92012dcba0cb6877c"
      },
      "_recordedDate": {
        "extension": [ {
          "url": "http://hl7.org/fhir/StructureDefinition/data-absent-reason",
          "valueCode": "unknown"
        } ]
      }
    },
    "request": {
      "method": "POST",
      "url": "Condition",
      "ifNoneExist": "identifier=https://mein.krankenhaus.de/fhir/NamingSystem/conditionId|b733391a8c10db0d2aff3ebce993fdeea11bd117ca06543e0adf43c33e706991"
    }
  }, {
    "fullUrl": "Condition/bf21728995bee1f2ec88fe57ac1be4191b85c92fdc0cb8a2111546b133652bf7",
    "resource": {
      "resourceType": "Condition",
      "meta": {
        "profile": [ "https://www.netzwerk-universitaetsmedizin.de/fhir/StructureDefinition/gastrointestinal-ulcers" ]
      },
      "identifier": [ {
        "system": "https://mein.krankenhaus.de/fhir/NamingSystem/conditionId",
        "value": "87907235b8ffbb1a8beaa67a51fc47f0242bf42584de3a5879705b42a6e99b94"
      } ],
      "clinicalStatus": {
        "coding": [ {
          "system": "http://terminology.hl7.org/CodeSystem/condition-clinical",
          "code": "active",
          "display": "Active"
        } ]
      },
      "verificationStatus": {
        "coding": [ {
          "system": "http://terminology.hl7.org/CodeSystem/condition-ver-status",
          "code": "confirmed",
          "display": "Confirmed"
        }, {
          "system": "http://snomed.info/sct",
          "code": "410605003",
          "display": "Confirmed present (qualifier value)"
        } ]
      },
      "category": [ {
        "coding": [ {
          "system": "http://snomed.info/sct",
          "code": "394584008",
          "display": "Gastroenterology (qualifier value))"
        } ]
      } ],
      "code": {
        "coding": [ {
          "system": "http://fhir.de/CodeSystem/dimdi/icd-10-gm",
          "version": "2021",
          "code": "K28"
        }, {
          "system": "http://snomed.info/sct",
          "code": "40845000"
        } ]
      },
      "subject": {
        "reference": "Patient/388bf7d2cb8501bec8aec34b02c8ec24afd31a4b1d990748173f87fafcacb7e4"
      },
      "encounter": {
        "reference": "Encounter/d898144ecb5d517599f188a426ff42c53b3aeae6011f70d92012dcba0cb6877c"
      },
      "_recordedDate": {
        "extension": [ {
          "url": "http://hl7.org/fhir/StructureDefinition/data-absent-reason",
          "valueCode": "unknown"
        } ]
      }
    },
    "request": {
      "method": "POST",
      "url": "Condition",
      "ifNoneExist": "identifier=https://mein.krankenhaus.de/fhir/NamingSystem/conditionId|bf21728995bee1f2ec88fe57ac1be4191b85c92fdc0cb8a2111546b133652bf7"
    }
  }, {
    "fullUrl": "Observation/72db5ed1dc7e38cfe549d399e7a5c94ca6cd979fddfdba9596ffecc1c06f982f",
    "resource": {
      "resourceType": "Observation",
      "meta": {
        "profile": [ "https://www.netzwerk-universitaetsmedizin.de/fhir/StructureDefinition/smoking-status" ]
      },
      "identifier": [ {
        "system": "https://mein.krankenhaus.de/fhir/NamingSystem/observationId",
        "value": "5166bf0e806bc9ce93db330ef50760a757a2fd1eb78ede905838f4d4a59cb6a1"
      } ],
      "status": "final",
      "category": [ {
        "coding": [ {
          "system": "http://terminology.hl7.org/CodeSystem/observation-category",
          "code": "social-history",
          "display": "Social History"
        } ]
      } ],
      "code": {
        "coding": [ {
          "system": "http://loinc.org",
          "code": "72166-2"
        } ]
      },
      "subject": {
        "reference": "Patient/388bf7d2cb8501bec8aec34b02c8ec24afd31a4b1d990748173f87fafcacb7e4"
      },
      "encounter": {
        "reference": "Encounter/d898144ecb5d517599f188a426ff42c53b3aeae6011f70d92012dcba0cb6877c"
      },
      "_effectiveDateTime": {
        "extension": [ {
          "url": "http://hl7.org/fhir/StructureDefinition/data-absent-reason",
          "valueCode": "unknown"
        } ]
      },
      "valueCodeableConcept": {
        "coding": [ {
          "system": "http://loinc.org",
          "code": "LA18976-3"
        } ]
      }
    },
    "request": {
      "method": "POST",
      "url": "Observation",
      "ifNoneExist": "identifier=https://mein.krankenhaus.de/fhir/NamingSystem/observationId|72db5ed1dc7e38cfe549d399e7a5c94ca6cd979fddfdba9596ffecc1c06f982f"
    }
  }, {
    "fullUrl": "Observation/84163d38291dd0c43cfc9dcb842644f15ce258c659ac56bf0f0d1a418a7d6ff0",
    "resource": {
      "resourceType": "Observation",
      "meta": {
        "profile": [ "https://www.netzwerk-universitaetsmedizin.de/fhir/StructureDefinition/history-of-travel" ]
      },
      "identifier": [ {
        "type": {
          "coding": [ {
            "system": "http://terminology.hl7.org/CodeSystem/v2-0203",
            "code": "OBI",
            "display": "Observation Instance Identifier"
          } ]
        },
        "system": "https://mein.krankenhaus.de/fhir/NamingSystem/observationId",
        "value": "9fcce10c81797cbca597aa705d4a537a83bc2f5e9abc482d0e5ae5aed64144fa",
        "assigner": {
          "reference": "Organization/3a4f3433bce81181bad2d8e0b8fafccf7dc800bc06f29be73dcb38b750a48f9a"
        }
      } ],
      "status": "final",
      "category": [ {
        "coding": [ {
          "system": "http://terminology.hl7.org/CodeSystem/observation-category",
          "code": "social-history",
          "display": "Social History"
        } ]
      } ],
      "code": {
        "coding": [ {
          "system": "http://loinc.org",
          "code": "8691-8"
        }, {
          "system": "http://snomed.info/sct",
          "code": "443846001"
        } ],
        "text": "History of Travel"
      },
      "subject": {
        "reference": "Patient/388bf7d2cb8501bec8aec34b02c8ec24afd31a4b1d990748173f87fafcacb7e4"
      },
      "encounter": {
        "reference": "Encounter/d898144ecb5d517599f188a426ff42c53b3aeae6011f70d92012dcba0cb6877c"
      },
      "_effectiveDateTime": {
        "extension": [ {
          "url": "http://hl7.org/fhir/StructureDefinition/data-absent-reason",
          "valueCode": "unknown"
        } ]
      },
      "valueCodeableConcept": {
        "coding": [ {
          "system": "http://snomed.info/sct",
          "code": "373066001"
        } ]
      },
      "component": [ {
        "code": {
          "coding": [ {
            "system": "http://loinc.org",
            "code": "82752-7",
            "display": "Date travel started"
          } ],
          "text": "Travel start date"
        },
        "valueDateTime": "2020-03-18"
      }, {
        "code": {
          "coding": [ {
            "system": "http://loinc.org",
            "code": "91560-3",
            "display": "Date of departure from travel destination"
          } ],
          "text": "Travel end date"
        },
        "valueDateTime": "2020-04-07"
      }, {
        "code": {
          "coding": [ {
            "system": "http://loinc.org",
            "code": "94651-7",
            "display": "Country of travel"
          } ],
          "text": "Country of travel"
        },
        "valueCodeableConcept": {
          "coding": [ {
            "system": "urn:iso:std:iso:3166",
            "code": "RW",
            "display": "Rwanda"
          } ],
          "text": "Rwanda"
        }
      } ]
    },
    "request": {
      "method": "POST",
      "url": "Observation",
      "ifNoneExist": "identifier=https://mein.krankenhaus.de/fhir/NamingSystem/observationId|84163d38291dd0c43cfc9dcb842644f15ce258c659ac56bf0f0d1a418a7d6ff0"
    }
  }, {
    "fullUrl": "Observation/2af9884eafc5b3e0b933662d2fc21c1e5f760610ab169aa780451aac85e7e31c",
    "resource": {
      "resourceType": "Observation",
      "meta": {
        "profile": [ "https://www.netzwerk-universitaetsmedizin.de/fhir/StructureDefinition/history-of-travel" ]
      },
      "identifier": [ {
        "type": {
          "coding": [ {
            "system": "http://terminology.hl7.org/CodeSystem/v2-0203",
            "code": "OBI",
            "display": "Observation Instance Identifier"
          } ]
        },
        "system": "https://mein.krankenhaus.de/fhir/NamingSystem/observationId",
        "value": "90a5ae2faca43cd9b29612be50f3b377d7c04dd46358a13c7e1b82975e9c0d77",
        "assigner": {
          "reference": "Organization/3a4f3433bce81181bad2d8e0b8fafccf7dc800bc06f29be73dcb38b750a48f9a"
        }
      } ],
      "status": "final",
      "category": [ {
        "coding": [ {
          "system": "http://terminology.hl7.org/CodeSystem/observation-category",
          "code": "social-history",
          "display": "Social History"
        } ]
      } ],
      "code": {
        "coding": [ {
          "system": "http://loinc.org",
          "code": "8691-8"
        }, {
          "system": "http://snomed.info/sct",
          "code": "443846001"
        } ],
        "text": "History of Travel"
      },
      "subject": {
        "reference": "Patient/388bf7d2cb8501bec8aec34b02c8ec24afd31a4b1d990748173f87fafcacb7e4"
      },
      "encounter": {
        "reference": "Encounter/d898144ecb5d517599f188a426ff42c53b3aeae6011f70d92012dcba0cb6877c"
      },
      "_effectiveDateTime": {
        "extension": [ {
          "url": "http://hl7.org/fhir/StructureDefinition/data-absent-reason",
          "valueCode": "unknown"
        } ]
      },
      "valueCodeableConcept": {
        "coding": [ {
          "system": "http://snomed.info/sct",
          "code": "373066001"
        } ]
      },
      "component": [ {
        "code": {
          "coding": [ {
            "system": "http://loinc.org",
            "code": "82752-7",
            "display": "Date travel started"
          } ],
          "text": "Travel start date"
        },
        "valueDateTime": "2020-01-16"
      }, {
        "code": {
          "coding": [ {
            "system": "http://loinc.org",
            "code": "91560-3",
            "display": "Date of departure from travel destination"
          } ],
          "text": "Travel end date"
        },
        "valueDateTime": "2020-06-01"
      }, {
        "code": {
          "coding": [ {
            "system": "http://loinc.org",
            "code": "94651-7",
            "display": "Country of travel"
          } ],
          "text": "Country of travel"
        },
        "valueCodeableConcept": {
          "coding": [ {
            "system": "urn:iso:std:iso:3166",
            "code": "FR",
            "display": "France"
          } ],
          "text": "France"
        }
      } ]
    },
    "request": {
      "method": "POST",
      "url": "Observation",
      "ifNoneExist": "identifier=https://mein.krankenhaus.de/fhir/NamingSystem/observationId|2af9884eafc5b3e0b933662d2fc21c1e5f760610ab169aa780451aac85e7e31c"
    }
  }, {
    "fullUrl": "Observation/cdb73cb8eb944d4a843e14613edc5092d94166a6ef150235db39520cc79952fb",
    "resource": {
      "resourceType": "Observation",
      "meta": {
        "profile": [ "https://www.netzwerk-universitaetsmedizin.de/fhir/StructureDefinition/history-of-travel" ]
      },
      "identifier": [ {
        "type": {
          "coding": [ {
            "system": "http://terminology.hl7.org/CodeSystem/v2-0203",
            "code": "OBI",
            "display": "Observation Instance Identifier"
          } ]
        },
        "system": "https://mein.krankenhaus.de/fhir/NamingSystem/observationId",
        "value": "7b18b1f0bedc23a5c9a7fe16316bd7d938c3346f881ca8ddb04e03e9f7de1986",
        "assigner": {
          "reference": "Organization/3a4f3433bce81181bad2d8e0b8fafccf7dc800bc06f29be73dcb38b750a48f9a"
        }
      } ],
      "status": "final",
      "category": [ {
        "coding": [ {
          "system": "http://terminology.hl7.org/CodeSystem/observation-category",
          "code": "social-history",
          "display": "Social History"
        } ]
      } ],
      "code": {
        "coding": [ {
          "system": "http://loinc.org",
          "code": "8691-8"
        }, {
          "system": "http://snomed.info/sct",
          "code": "443846001"
        } ],
        "text": "History of Travel"
      },
      "subject": {
        "reference": "Patient/388bf7d2cb8501bec8aec34b02c8ec24afd31a4b1d990748173f87fafcacb7e4"
      },
      "encounter": {
        "reference": "Encounter/d898144ecb5d517599f188a426ff42c53b3aeae6011f70d92012dcba0cb6877c"
      },
      "_effectiveDateTime": {
        "extension": [ {
          "url": "http://hl7.org/fhir/StructureDefinition/data-absent-reason",
          "valueCode": "unknown"
        } ]
      },
      "valueCodeableConcept": {
        "coding": [ {
          "system": "http://snomed.info/sct",
          "code": "373066001"
        } ]
      },
      "component": [ {
        "code": {
          "coding": [ {
            "system": "http://loinc.org",
            "code": "82752-7",
            "display": "Date travel started"
          } ],
          "text": "Travel start date"
        },
        "valueDateTime": "2020-11-22"
      }, {
        "code": {
          "coding": [ {
            "system": "http://loinc.org",
            "code": "94651-7",
            "display": "Country of travel"
          } ],
          "text": "Country of travel"
        },
        "valueCodeableConcept": {
          "coding": [ {
            "system": "urn:iso:std:iso:3166",
            "code": "BI",
            "display": "Burundi"
          } ],
          "text": "Burundi"
        }
      } ]
    },
    "request": {
      "method": "POST",
      "url": "Observation",
      "ifNoneExist": "identifier=https://mein.krankenhaus.de/fhir/NamingSystem/observationId|cdb73cb8eb944d4a843e14613edc5092d94166a6ef150235db39520cc79952fb"
    }
  }, {
    "fullUrl": "Observation/8b328f51a783e74fd2931f898aa849e5071ffe6e0a7c4f57300576aff86754e7",
    "resource": {
      "resourceType": "Observation",
      "meta": {
        "profile": [ "https://www.netzwerk-universitaetsmedizin.de/fhir/StructureDefinition/history-of-travel" ]
      },
      "identifier": [ {
        "type": {
          "coding": [ {
            "system": "http://terminology.hl7.org/CodeSystem/v2-0203",
            "code": "OBI",
            "display": "Observation Instance Identifier"
          } ]
        },
        "system": "https://mein.krankenhaus.de/fhir/NamingSystem/observationId",
        "value": "4a6d1cb323090603cc5c8f2dcbca9f006d3583c6fce94a08b22ddec1ff8e82d1",
        "assigner": {
          "reference": "Organization/3a4f3433bce81181bad2d8e0b8fafccf7dc800bc06f29be73dcb38b750a48f9a"
        }
      } ],
      "status": "final",
      "category": [ {
        "coding": [ {
          "system": "http://terminology.hl7.org/CodeSystem/observation-category",
          "code": "social-history",
          "display": "Social History"
        } ]
      } ],
      "code": {
        "coding": [ {
          "system": "http://loinc.org",
          "code": "8691-8"
        }, {
          "system": "http://snomed.info/sct",
          "code": "443846001"
        } ],
        "text": "History of Travel"
      },
      "subject": {
        "reference": "Patient/388bf7d2cb8501bec8aec34b02c8ec24afd31a4b1d990748173f87fafcacb7e4"
      },
      "encounter": {
        "reference": "Encounter/d898144ecb5d517599f188a426ff42c53b3aeae6011f70d92012dcba0cb6877c"
      },
      "_effectiveDateTime": {
        "extension": [ {
          "url": "http://hl7.org/fhir/StructureDefinition/data-absent-reason",
          "valueCode": "unknown"
        } ]
      },
      "valueCodeableConcept": {
        "coding": [ {
          "system": "http://snomed.info/sct",
          "code": "373066001"
        } ]
      },
      "component": [ {
        "code": {
          "coding": [ {
            "system": "http://loinc.org",
            "code": "82752-7",
            "display": "Date travel started"
          } ],
          "text": "Travel start date"
        },
        "valueDateTime": "2020-10-24"
      }, {
        "code": {
          "coding": [ {
            "system": "http://loinc.org",
            "code": "91560-3",
            "display": "Date of departure from travel destination"
          } ],
          "text": "Travel end date"
        },
        "valueDateTime": "2020-02-24"
      }, {
        "code": {
          "coding": [ {
            "system": "http://loinc.org",
            "code": "94651-7",
            "display": "Country of travel"
          } ],
          "text": "Country of travel"
        },
        "valueCodeableConcept": {
          "coding": [ {
            "system": "urn:iso:std:iso:3166",
            "code": "TF",
            "display": "French Southern Territories"
          } ],
          "text": "French Southern Territories"
        }
      } ]
    },
    "request": {
      "method": "POST",
      "url": "Observation",
      "ifNoneExist": "identifier=https://mein.krankenhaus.de/fhir/NamingSystem/observationId|8b328f51a783e74fd2931f898aa849e5071ffe6e0a7c4f57300576aff86754e7"
    }
  }, {
    "fullUrl": "Observation/aadb5d27fd46b3a8423225ab070d430bef34bd71cc1b8e87c42bc9921d2d7bfc",
    "resource": {
      "resourceType": "Observation",
      "meta": {
        "profile": [ "https://www.netzwerk-universitaetsmedizin.de/fhir/StructureDefinition/history-of-travel" ]
      },
      "identifier": [ {
        "type": {
          "coding": [ {
            "system": "http://terminology.hl7.org/CodeSystem/v2-0203",
            "code": "OBI",
            "display": "Observation Instance Identifier"
          } ]
        },
        "system": "https://mein.krankenhaus.de/fhir/NamingSystem/observationId",
        "value": "7dba85ab3119c4afd93cd1fa139f55477184fb3345f03b15d97b7789673494a4",
        "assigner": {
          "reference": "Organization/3a4f3433bce81181bad2d8e0b8fafccf7dc800bc06f29be73dcb38b750a48f9a"
        }
      } ],
      "status": "final",
      "category": [ {
        "coding": [ {
          "system": "http://terminology.hl7.org/CodeSystem/observation-category",
          "code": "social-history",
          "display": "Social History"
        } ]
      } ],
      "code": {
        "coding": [ {
          "system": "http://loinc.org",
          "code": "8691-8"
        }, {
          "system": "http://snomed.info/sct",
          "code": "443846001"
        } ],
        "text": "History of Travel"
      },
      "subject": {
        "reference": "Patient/388bf7d2cb8501bec8aec34b02c8ec24afd31a4b1d990748173f87fafcacb7e4"
      },
      "encounter": {
        "reference": "Encounter/d898144ecb5d517599f188a426ff42c53b3aeae6011f70d92012dcba0cb6877c"
      },
      "_effectiveDateTime": {
        "extension": [ {
          "url": "http://hl7.org/fhir/StructureDefinition/data-absent-reason",
          "valueCode": "unknown"
        } ]
      },
      "valueCodeableConcept": {
        "coding": [ {
          "system": "http://snomed.info/sct",
          "code": "373066001"
        } ]
      },
      "component": [ {
        "code": {
          "coding": [ {
            "system": "http://loinc.org",
            "code": "82752-7",
            "display": "Date travel started"
          } ],
          "text": "Travel start date"
        },
        "valueDateTime": "2020-04-11"
      }, {
        "code": {
          "coding": [ {
            "system": "http://loinc.org",
            "code": "91560-3",
            "display": "Date of departure from travel destination"
          } ],
          "text": "Travel end date"
        },
        "valueDateTime": "2020-10-14"
      }, {
        "code": {
          "coding": [ {
            "system": "http://loinc.org",
            "code": "94651-7",
            "display": "Country of travel"
          } ],
          "text": "Country of travel"
        },
        "valueCodeableConcept": {
          "coding": [ {
            "system": "urn:iso:std:iso:3166",
            "code": "CY",
            "display": "Cyprus"
          } ],
          "text": "Cyprus"
        }
      } ]
    },
    "request": {
      "method": "POST",
      "url": "Observation",
      "ifNoneExist": "identifier=https://mein.krankenhaus.de/fhir/NamingSystem/observationId|aadb5d27fd46b3a8423225ab070d430bef34bd71cc1b8e87c42bc9921d2d7bfc"
    }
  }, {
    "fullUrl": "Observation/eaaf72346fdc03eac46cccce7c02eb1f1a512499692a49133d20aba378d734ef",
    "resource": {
      "resourceType": "Observation",
      "meta": {
        "profile": [ "https://www.netzwerk-universitaetsmedizin.de/fhir/StructureDefinition/history-of-travel" ]
      },
      "identifier": [ {
        "type": {
          "coding": [ {
            "system": "http://terminology.hl7.org/CodeSystem/v2-0203",
            "code": "OBI",
            "display": "Observation Instance Identifier"
          } ]
        },
        "system": "https://mein.krankenhaus.de/fhir/NamingSystem/observationId",
        "value": "9e1211ea0e9e7628c9b8be859eacd4610bd4a70128b19f78716b130f6371b885",
        "assigner": {
          "reference": "Organization/3a4f3433bce81181bad2d8e0b8fafccf7dc800bc06f29be73dcb38b750a48f9a"
        }
      } ],
      "status": "final",
      "category": [ {
        "coding": [ {
          "system": "http://terminology.hl7.org/CodeSystem/observation-category",
          "code": "social-history",
          "display": "Social History"
        } ]
      } ],
      "code": {
        "coding": [ {
          "system": "http://loinc.org",
          "code": "8691-8"
        }, {
          "system": "http://snomed.info/sct",
          "code": "443846001"
        } ],
        "text": "History of Travel"
      },
      "subject": {
        "reference": "Patient/388bf7d2cb8501bec8aec34b02c8ec24afd31a4b1d990748173f87fafcacb7e4"
      },
      "encounter": {
        "reference": "Encounter/d898144ecb5d517599f188a426ff42c53b3aeae6011f70d92012dcba0cb6877c"
      },
      "_effectiveDateTime": {
        "extension": [ {
          "url": "http://hl7.org/fhir/StructureDefinition/data-absent-reason",
          "valueCode": "unknown"
        } ]
      },
      "valueCodeableConcept": {
        "coding": [ {
          "system": "http://snomed.info/sct",
          "code": "373066001"
        } ]
      },
      "component": [ {
        "code": {
          "coding": [ {
            "system": "http://loinc.org",
            "code": "82752-7",
            "display": "Date travel started"
          } ],
          "text": "Travel start date"
        },
        "valueDateTime": "2020-10-27"
      }, {
        "code": {
          "coding": [ {
            "system": "http://loinc.org",
            "code": "91560-3",
            "display": "Date of departure from travel destination"
          } ],
          "text": "Travel end date"
        },
        "valueDateTime": "2020-10-04"
      }, {
        "code": {
          "coding": [ {
            "system": "http://loinc.org",
            "code": "94651-7",
            "display": "Country of travel"
          } ],
          "text": "Country of travel"
        },
        "valueCodeableConcept": {
          "coding": [ {
            "system": "urn:iso:std:iso:3166",
            "code": "HK",
            "display": "Hong Kong SAR China"
          } ],
          "text": "Hong Kong SAR China"
        }
      } ]
    },
    "request": {
      "method": "POST",
      "url": "Observation",
      "ifNoneExist": "identifier=https://mein.krankenhaus.de/fhir/NamingSystem/observationId|eaaf72346fdc03eac46cccce7c02eb1f1a512499692a49133d20aba378d734ef"
    }
  }, {
    "fullUrl": "Observation/d52c3889e0ffa22b1ddc8dceb7f2261c417761d9892be641a280ec81074615ca",
    "resource": {
      "resourceType": "Observation",
      "meta": {
        "profile": [ "https://www.netzwerk-universitaetsmedizin.de/fhir/StructureDefinition/history-of-travel" ]
      },
      "identifier": [ {
        "type": {
          "coding": [ {
            "system": "http://terminology.hl7.org/CodeSystem/v2-0203",
            "code": "OBI",
            "display": "Observation Instance Identifier"
          } ]
        },
        "system": "https://mein.krankenhaus.de/fhir/NamingSystem/observationId",
        "value": "526d43d32854f5d4735d96a262b9edbe00a66ab82abbb20e137ec3ac3d962047",
        "assigner": {
          "reference": "Organization/3a4f3433bce81181bad2d8e0b8fafccf7dc800bc06f29be73dcb38b750a48f9a"
        }
      } ],
      "status": "final",
      "category": [ {
        "coding": [ {
          "system": "http://terminology.hl7.org/CodeSystem/observation-category",
          "code": "social-history",
          "display": "Social History"
        } ]
      } ],
      "code": {
        "coding": [ {
          "system": "http://loinc.org",
          "code": "8691-8"
        }, {
          "system": "http://snomed.info/sct",
          "code": "443846001"
        } ],
        "text": "History of Travel"
      },
      "subject": {
        "reference": "Patient/388bf7d2cb8501bec8aec34b02c8ec24afd31a4b1d990748173f87fafcacb7e4"
      },
      "encounter": {
        "reference": "Encounter/d898144ecb5d517599f188a426ff42c53b3aeae6011f70d92012dcba0cb6877c"
      },
      "_effectiveDateTime": {
        "extension": [ {
          "url": "http://hl7.org/fhir/StructureDefinition/data-absent-reason",
          "valueCode": "unknown"
        } ]
      },
      "valueCodeableConcept": {
        "coding": [ {
          "system": "http://snomed.info/sct",
          "code": "373066001"
        } ]
      },
      "component": [ {
        "code": {
          "coding": [ {
            "system": "http://loinc.org",
            "code": "82752-7",
            "display": "Date travel started"
          } ],
          "text": "Travel start date"
        },
        "valueDateTime": "2020-06-02"
      }, {
        "code": {
          "coding": [ {
            "system": "http://loinc.org",
            "code": "91560-3",
            "display": "Date of departure from travel destination"
          } ],
          "text": "Travel end date"
        },
        "valueDateTime": "2020-02-06"
      }, {
        "code": {
          "coding": [ {
            "system": "http://loinc.org",
            "code": "94651-7",
            "display": "Country of travel"
          } ],
          "text": "Country of travel"
        },
        "valueCodeableConcept": {
          "coding": [ {
            "system": "urn:iso:std:iso:3166",
            "code": "SB",
            "display": "Solomon Islands"
          } ],
          "text": "Solomon Islands"
        }
      } ]
    },
    "request": {
      "method": "POST",
      "url": "Observation",
      "ifNoneExist": "identifier=https://mein.krankenhaus.de/fhir/NamingSystem/observationId|d52c3889e0ffa22b1ddc8dceb7f2261c417761d9892be641a280ec81074615ca"
    }
  }, {
    "fullUrl": "Observation/7216a7d47abaa1670de1b8c78ada21edbc6e565365229e56dbdef361ba9a200a",
    "resource": {
      "resourceType": "Observation",
      "meta": {
        "profile": [ "https://www.netzwerk-universitaetsmedizin.de/fhir/StructureDefinition/history-of-travel" ]
      },
      "identifier": [ {
        "type": {
          "coding": [ {
            "system": "http://terminology.hl7.org/CodeSystem/v2-0203",
            "code": "OBI",
            "display": "Observation Instance Identifier"
          } ]
        },
        "system": "https://mein.krankenhaus.de/fhir/NamingSystem/observationId",
        "value": "d34f578385ad791a09c8b82c6cf8651b3d8c93cead61fea275d532a77aa0432f",
        "assigner": {
          "reference": "Organization/3a4f3433bce81181bad2d8e0b8fafccf7dc800bc06f29be73dcb38b750a48f9a"
        }
      } ],
      "status": "final",
      "category": [ {
        "coding": [ {
          "system": "http://terminology.hl7.org/CodeSystem/observation-category",
          "code": "social-history",
          "display": "Social History"
        } ]
      } ],
      "code": {
        "coding": [ {
          "system": "http://loinc.org",
          "code": "8691-8"
        }, {
          "system": "http://snomed.info/sct",
          "code": "443846001"
        } ],
        "text": "History of Travel"
      },
      "subject": {
        "reference": "Patient/388bf7d2cb8501bec8aec34b02c8ec24afd31a4b1d990748173f87fafcacb7e4"
      },
      "encounter": {
        "reference": "Encounter/d898144ecb5d517599f188a426ff42c53b3aeae6011f70d92012dcba0cb6877c"
      },
      "_effectiveDateTime": {
        "extension": [ {
          "url": "http://hl7.org/fhir/StructureDefinition/data-absent-reason",
          "valueCode": "unknown"
        } ]
      },
      "valueCodeableConcept": {
        "coding": [ {
          "system": "http://snomed.info/sct",
          "code": "373066001"
        } ]
      },
      "component": [ {
        "code": {
          "coding": [ {
            "system": "http://loinc.org",
            "code": "82752-7",
            "display": "Date travel started"
          } ],
          "text": "Travel start date"
        },
        "valueDateTime": "2020-12-19"
      }, {
        "code": {
          "coding": [ {
            "system": "http://loinc.org",
            "code": "91560-3",
            "display": "Date of departure from travel destination"
          } ],
          "text": "Travel end date"
        },
        "valueDateTime": "2020-03-08"
      }, {
        "code": {
          "coding": [ {
            "system": "http://loinc.org",
            "code": "94651-7",
            "display": "Country of travel"
          } ],
          "text": "Country of travel"
        },
        "valueCodeableConcept": {
          "coding": [ {
            "system": "urn:iso:std:iso:3166",
            "code": "LK",
            "display": "Sri Lanka"
          } ],
          "text": "Sri Lanka"
        }
      } ]
    },
    "request": {
      "method": "POST",
      "url": "Observation",
      "ifNoneExist": "identifier=https://mein.krankenhaus.de/fhir/NamingSystem/observationId|7216a7d47abaa1670de1b8c78ada21edbc6e565365229e56dbdef361ba9a200a"
    }
  }, {
    "fullUrl": "Observation/e24598708f581e56ddcd007b94de89c9f3cfa68f2d9ff82836aca33e8c8a966a",
    "resource": {
      "resourceType": "Observation",
      "meta": {
        "profile": [ "https://www.netzwerk-universitaetsmedizin.de/fhir/StructureDefinition/history-of-travel" ]
      },
      "identifier": [ {
        "type": {
          "coding": [ {
            "system": "http://terminology.hl7.org/CodeSystem/v2-0203",
            "code": "OBI",
            "display": "Observation Instance Identifier"
          } ]
        },
        "system": "https://mein.krankenhaus.de/fhir/NamingSystem/observationId",
        "value": "9ef034af1928903db7fcf6c47a70c32f28ef5eb56bf38f2b1c11ec80cea307e6",
        "assigner": {
          "reference": "Organization/3a4f3433bce81181bad2d8e0b8fafccf7dc800bc06f29be73dcb38b750a48f9a"
        }
      } ],
      "status": "final",
      "category": [ {
        "coding": [ {
          "system": "http://terminology.hl7.org/CodeSystem/observation-category",
          "code": "social-history",
          "display": "Social History"
        } ]
      } ],
      "code": {
        "coding": [ {
          "system": "http://loinc.org",
          "code": "8691-8"
        }, {
          "system": "http://snomed.info/sct",
          "code": "443846001"
        } ],
        "text": "History of Travel"
      },
      "subject": {
        "reference": "Patient/388bf7d2cb8501bec8aec34b02c8ec24afd31a4b1d990748173f87fafcacb7e4"
      },
      "encounter": {
        "reference": "Encounter/d898144ecb5d517599f188a426ff42c53b3aeae6011f70d92012dcba0cb6877c"
      },
      "_effectiveDateTime": {
        "extension": [ {
          "url": "http://hl7.org/fhir/StructureDefinition/data-absent-reason",
          "valueCode": "unknown"
        } ]
      },
      "valueCodeableConcept": {
        "coding": [ {
          "system": "http://snomed.info/sct",
          "code": "373066001"
        } ]
      },
      "component": [ {
        "code": {
          "coding": [ {
            "system": "http://loinc.org",
            "code": "91560-3",
            "display": "Date of departure from travel destination"
          } ],
          "text": "Travel end date"
        },
        "valueDateTime": "2020-04-15"
      }, {
        "code": {
          "coding": [ {
            "system": "http://loinc.org",
            "code": "94651-7",
            "display": "Country of travel"
          } ],
          "text": "Country of travel"
        },
        "valueCodeableConcept": {
          "coding": [ {
            "system": "urn:iso:std:iso:3166",
            "code": "AD",
            "display": "Andorra"
          } ],
          "text": "Andorra"
        }
      } ]
    },
    "request": {
      "method": "POST",
      "url": "Observation",
      "ifNoneExist": "identifier=https://mein.krankenhaus.de/fhir/NamingSystem/observationId|e24598708f581e56ddcd007b94de89c9f3cfa68f2d9ff82836aca33e8c8a966a"
    }
  }, {
    "fullUrl": "Observation/601a53284de87164ea97509518004095bdb0383522f11a82c1b692e7b9c78370",
    "resource": {
      "resourceType": "Observation",
      "meta": {
        "profile": [ "https://www.netzwerk-universitaetsmedizin.de/fhir/StructureDefinition/history-of-travel" ]
      },
      "identifier": [ {
        "type": {
          "coding": [ {
            "system": "http://terminology.hl7.org/CodeSystem/v2-0203",
            "code": "OBI",
            "display": "Observation Instance Identifier"
          } ]
        },
        "system": "https://mein.krankenhaus.de/fhir/NamingSystem/observationId",
        "value": "58bb8aac83e515b25508e29058f53282b3a8f038b7d0b01a2afa36a83dacc6ab",
        "assigner": {
          "reference": "Organization/3a4f3433bce81181bad2d8e0b8fafccf7dc800bc06f29be73dcb38b750a48f9a"
        }
      } ],
      "status": "final",
      "category": [ {
        "coding": [ {
          "system": "http://terminology.hl7.org/CodeSystem/observation-category",
          "code": "social-history",
          "display": "Social History"
        } ]
      } ],
      "code": {
        "coding": [ {
          "system": "http://loinc.org",
          "code": "8691-8"
        }, {
          "system": "http://snomed.info/sct",
          "code": "443846001"
        } ],
        "text": "History of Travel"
      },
      "subject": {
        "reference": "Patient/388bf7d2cb8501bec8aec34b02c8ec24afd31a4b1d990748173f87fafcacb7e4"
      },
      "encounter": {
        "reference": "Encounter/d898144ecb5d517599f188a426ff42c53b3aeae6011f70d92012dcba0cb6877c"
      },
      "_effectiveDateTime": {
        "extension": [ {
          "url": "http://hl7.org/fhir/StructureDefinition/data-absent-reason",
          "valueCode": "unknown"
        } ]
      },
      "valueCodeableConcept": {
        "coding": [ {
          "system": "http://snomed.info/sct",
          "code": "373066001"
        } ]
      },
      "component": [ {
        "code": {
          "coding": [ {
            "system": "http://loinc.org",
            "code": "82752-7",
            "display": "Date travel started"
          } ],
          "text": "Travel start date"
        },
        "valueDateTime": "2020-10-31"
      }, {
        "code": {
          "coding": [ {
            "system": "http://loinc.org",
            "code": "91560-3",
            "display": "Date of departure from travel destination"
          } ],
          "text": "Travel end date"
        },
        "valueDateTime": "2020-03-19"
      }, {
        "code": {
          "coding": [ {
            "system": "http://loinc.org",
            "code": "94651-7",
            "display": "Country of travel"
          } ],
          "text": "Country of travel"
        },
        "valueCodeableConcept": {
          "coding": [ {
            "system": "urn:iso:std:iso:3166",
            "code": "TN",
            "display": "Tunisia"
          } ],
          "text": "Tunisia"
        }
      } ]
    },
    "request": {
      "method": "POST",
      "url": "Observation",
      "ifNoneExist": "identifier=https://mein.krankenhaus.de/fhir/NamingSystem/observationId|601a53284de87164ea97509518004095bdb0383522f11a82c1b692e7b9c78370"
    }
  }, {
    "fullUrl": "Procedure/ca001c40a9c88cc5935cfaa93519113172e4b36de32bfa79e2a70e5ddc29fab3",
    "resource": {
      "resourceType": "Procedure",
      "meta": {
        "profile": [ "https://www.netzwerk-universitaetsmedizin.de/fhir/StructureDefinition/respiratory-therapies" ]
      },
      "identifier": [ {
        "system": "https://mein.krankenhaus.de/fhir/NamingSystem/procedureId",
        "value": "bb12f61afd32ae8ce1ec63e10e3ead601548661656ad128effaf09dd20253b97"
      } ],
      "status": "unknown",
      "category": {
        "coding": [ {
          "system": "http://snomed.info/sct",
          "code": "277132007",
          "display": "Therapeutic procedure (procedure)"
        } ]
      },
      "code": {
        "coding": [ {
          "system": "http://snomed.info/sct",
          "code": "53950000"
        } ]
      },
      "subject": {
        "reference": "Patient/388bf7d2cb8501bec8aec34b02c8ec24afd31a4b1d990748173f87fafcacb7e4"
      },
      "encounter": {
        "reference": "Encounter/d898144ecb5d517599f188a426ff42c53b3aeae6011f70d92012dcba0cb6877c"
      },
      "_performedDateTime": {
        "extension": [ {
          "url": "http://hl7.org/fhir/StructureDefinition/data-absent-reason",
          "valueCode": "unknown"
        } ]
      }
    },
    "request": {
      "method": "POST",
      "url": "Procedure",
      "ifNoneExist": "identifier=https://mein.krankenhaus.de/fhir/NamingSystem/procedureId|ca001c40a9c88cc5935cfaa93519113172e4b36de32bfa79e2a70e5ddc29fab3"
    }
  }, {
    "fullUrl": "Immunization/5a0294c49a80303bde4e9612c67974e37af96c2109332a69edd36700652219c0",
    "resource": {
      "resourceType": "Immunization",
      "meta": {
        "profile": [ "https://www.netzwerk-universitaetsmedizin.de/fhir/StructureDefinition/immunization" ]
      },
      "identifier": [ {
        "system": "https://mein.krankenhaus.de/fhir/NamingSystem/immunizationId",
        "value": "a00859ed5a36d11519a3524778e94319c3bde4c4a18719c49eb03f2ac737ce96"
      } ],
      "status": "not-done",
      "vaccineCode": {
        "coding": [ {
          "system": "http://snomed.info/sct",
          "code": "836398006"
        } ]
      },
      "patient": {
        "reference": "Patient/388bf7d2cb8501bec8aec34b02c8ec24afd31a4b1d990748173f87fafcacb7e4"
      },
      "encounter": {
        "reference": "Encounter/d898144ecb5d517599f188a426ff42c53b3aeae6011f70d92012dcba0cb6877c"
      },
      "_occurrenceDateTime": {
        "extension": [ {
          "url": "http://hl7.org/fhir/StructureDefinition/data-absent-reason",
          "valueCode": "unknown"
        } ]
      },
      "protocolApplied": [ {
        "targetDisease": [ {
          "coding": [ {
            "system": "http://snomed.info/sct",
            "code": "16814004"
          } ]
        } ],
        "_doseNumberString": {
          "extension": [ {
            "url": "http://hl7.org/fhir/StructureDefinition/data-absent-reason",
            "valueCode": "unknown"
          } ]
        }
      } ]
    },
    "request": {
      "method": "POST",
      "url": "Immunization",
      "ifNoneExist": "identifier=https://mein.krankenhaus.de/fhir/NamingSystem/immunizationId|5a0294c49a80303bde4e9612c67974e37af96c2109332a69edd36700652219c0"
    }
  }, {
    "fullUrl": "Immunization/b63a2b221df61397987cf6c1791ccfe24017a52133d12530fdce9df84938e1b1",
    "resource": {
      "resourceType": "Immunization",
      "meta": {
        "profile": [ "https://www.netzwerk-universitaetsmedizin.de/fhir/StructureDefinition/immunization" ]
      },
      "identifier": [ {
        "system": "https://mein.krankenhaus.de/fhir/NamingSystem/immunizationId",
        "value": "86a63ec56223fd4a6c0a9e3de16e49e6a74c354727e592610dc055faaf217174"
      } ],
      "status": "completed",
      "vaccineCode": {
        "coding": [ {
          "system": "http://snomed.info/sct",
          "code": "836402002"
        } ]
      },
      "patient": {
        "reference": "Patient/388bf7d2cb8501bec8aec34b02c8ec24afd31a4b1d990748173f87fafcacb7e4"
      },
      "encounter": {
        "reference": "Encounter/d898144ecb5d517599f188a426ff42c53b3aeae6011f70d92012dcba0cb6877c"
      },
      "occurrenceDateTime": "2020-05-24",
      "protocolApplied": [ {
        "targetDisease": [ {
          "coding": [ {
            "system": "http://snomed.info/sct",
            "code": "56717001"
          } ]
        } ],
        "_doseNumberString": {
          "extension": [ {
            "url": "http://hl7.org/fhir/StructureDefinition/data-absent-reason",
            "valueCode": "unknown"
          } ]
        }
      } ]
    },
    "request": {
      "method": "POST",
      "url": "Immunization",
      "ifNoneExist": "identifier=https://mein.krankenhaus.de/fhir/NamingSystem/immunizationId|b63a2b221df61397987cf6c1791ccfe24017a52133d12530fdce9df84938e1b1"
    }
  }, {
    "fullUrl": "Immunization/a361b1598d3753d5f144942fb9046868709473f738e7f1ed0eb84439bbdd2fa1",
    "resource": {
      "resourceType": "Immunization",
      "meta": {
        "profile": [ "https://www.netzwerk-universitaetsmedizin.de/fhir/StructureDefinition/immunization" ]
      },
      "identifier": [ {
        "system": "https://mein.krankenhaus.de/fhir/NamingSystem/immunizationId",
        "value": "9a93ec111ac341038688bf91d9a64fd4aef269b7737abb4e920b0cec95739bc2"
      } ],
      "status": "completed",
      "vaccineCode": {
        "coding": [ {
          "system": "http://snomed.info/sct",
          "code": "1119349007"
        } ]
      },
      "patient": {
        "reference": "Patient/388bf7d2cb8501bec8aec34b02c8ec24afd31a4b1d990748173f87fafcacb7e4"
      },
      "encounter": {
        "reference": "Encounter/d898144ecb5d517599f188a426ff42c53b3aeae6011f70d92012dcba0cb6877c"
      },
      "occurrenceDateTime": "2020-07-16",
      "protocolApplied": [ {
        "targetDisease": [ {
          "coding": [ {
            "system": "http://snomed.info/sct",
            "code": "840539006"
          } ]
        } ],
        "_doseNumberString": {
          "extension": [ {
            "url": "http://hl7.org/fhir/StructureDefinition/data-absent-reason",
            "valueCode": "unknown"
          } ]
        }
      } ]
    },
    "request": {
      "method": "POST",
      "url": "Immunization",
      "ifNoneExist": "identifier=https://mein.krankenhaus.de/fhir/NamingSystem/immunizationId|a361b1598d3753d5f144942fb9046868709473f738e7f1ed0eb84439bbdd2fa1"
    }
  }, {
    "fullUrl": "Immunization/654773542342f20ae8d32fd5c4ec19d0a0cb73eb383d4b19de4407cfb8156712",
    "resource": {
      "resourceType": "Immunization",
      "meta": {
        "profile": [ "https://www.netzwerk-universitaetsmedizin.de/fhir/StructureDefinition/immunization" ]
      },
      "identifier": [ {
        "system": "https://mein.krankenhaus.de/fhir/NamingSystem/immunizationId",
        "value": "4d61ebfa6c34e192f56537d3e44b5a4d94563b8b537709056e271f905f226cb4"
      } ],
      "status": "not-done",
      "vaccineCode": {
        "coding": [ {
          "system": "http://hl7.org/fhir/uv/ips/CodeSystem/absent-unknown-uv-ips",
          "code": "no-known-immunizations",
          "display": "vaccineCode unknown"
        } ]
      },
      "patient": {
        "reference": "Patient/388bf7d2cb8501bec8aec34b02c8ec24afd31a4b1d990748173f87fafcacb7e4"
      },
      "encounter": {
        "reference": "Encounter/d898144ecb5d517599f188a426ff42c53b3aeae6011f70d92012dcba0cb6877c"
      },
      "_occurrenceDateTime": {
        "extension": [ {
          "url": "http://hl7.org/fhir/StructureDefinition/data-absent-reason",
          "valueCode": "unknown"
        } ]
      },
      "protocolApplied": [ {
        "targetDisease": [ {
          "coding": [ {
            "system": "http://snomed.info/sct",
            "code": "64572001",
            "display": "targetDisease unknown"
          } ]
        } ],
        "_doseNumberString": {
          "extension": [ {
            "url": "http://hl7.org/fhir/StructureDefinition/data-absent-reason",
            "valueCode": "unknown"
          } ]
        }
      } ]
    },
    "request": {
      "method": "POST",
      "url": "Immunization",
      "ifNoneExist": "identifier=https://mein.krankenhaus.de/fhir/NamingSystem/immunizationId|654773542342f20ae8d32fd5c4ec19d0a0cb73eb383d4b19de4407cfb8156712"
    }
  }, {
    "fullUrl": "Consent/c1d05b63d08ec94b9104d6c998d1082b42226d3b9e5dabf8e1f11f2b1f6d3de6",
    "resource": {
      "resourceType": "Consent",
      "meta": {
        "profile": [ "https://www.netzwerk-universitaetsmedizin.de/fhir/StructureDefinition/do-not-resuscitate-order" ]
      },
      "identifier": [ {
        "system": "https://mein.krankenhaus.de/fhir/NamingSystem/consentId",
        "value": "c6838c1d13f903ae5ee298d24bfbabcbf00209834a3f09ed0ee135f5363ea0da"
      } ],
      "status": "active",
      "scope": {
        "coding": [ {
          "system": "http://terminology.hl7.org/CodeSystem/consentscope",
          "code": "adr",
          "display": "Advanced Care Directive"
        } ]
      },
      "category": [ {
        "coding": [ {
          "system": "http://terminology.hl7.org/CodeSystem/consentcategorycodes",
          "code": "dnr",
          "display": "Do Not Resuscitate"
        } ]
      } ],
      "patient": {
        "reference": "Patient/388bf7d2cb8501bec8aec34b02c8ec24afd31a4b1d990748173f87fafcacb7e4"
      },
      "policy": [ {
        "uri": "https://www.aerzteblatt.de/archiv/65440/DNR-Anordnungen-Das-fehlende-Bindeglied"
      } ],
      "provision": {
        "code": [ {
          "coding": [ {
            "system": "http://snomed.info/sct",
            "code": "304252001"
          } ]
        } ]
      }
    },
    "request": {
      "method": "POST",
      "url": "Consent",
      "ifNoneExist": "identifier=https://mein.krankenhaus.de/fhir/NamingSystem/consentId|c1d05b63d08ec94b9104d6c998d1082b42226d3b9e5dabf8e1f11f2b1f6d3de6"
    }
  }, {
    "fullUrl": "Observation/6871c9f2f4b0781a087776868261e9d0e9b6c7964acae7925a96a3963d91a064",
    "resource": {
      "resourceType": "Observation",
      "meta": {
        "profile": [ "https://www.netzwerk-universitaetsmedizin.de/fhir/StructureDefinition/sex-assigned-at-birth" ]
      },
      "identifier": [ {
        "system": "https://mein.krankenhaus.de/fhir/NamingSystem/observationId",
        "value": "b376abd6bb44483718a32c514e31654bd225629bdc036d4280247d331d8b8de0"
      } ],
      "status": "final",
      "category": [ {
        "coding": [ {
          "system": "http://terminology.hl7.org/CodeSystem/observation-category",
          "code": "social-history",
          "display": "Social History"
        } ]
      } ],
      "code": {
        "coding": [ {
          "system": "http://loinc.org",
          "code": "76689-9"
        } ]
      },
      "subject": {
        "reference": "Patient/388bf7d2cb8501bec8aec34b02c8ec24afd31a4b1d990748173f87fafcacb7e4"
      },
      "encounter": {
        "reference": "Encounter/d898144ecb5d517599f188a426ff42c53b3aeae6011f70d92012dcba0cb6877c"
      },
      "_effectiveDateTime": {
        "extension": [ {
          "url": "http://hl7.org/fhir/StructureDefinition/data-absent-reason",
          "valueCode": "unknown"
        } ]
      },
      "valueCodeableConcept": {
        "coding": [ {
          "system": "http://hl7.org/fhir/administrative-gender",
          "code": "unknown"
        } ]
      }
    },
    "request": {
      "method": "POST",
      "url": "Observation",
      "ifNoneExist": "identifier=https://mein.krankenhaus.de/fhir/NamingSystem/observationId|6871c9f2f4b0781a087776868261e9d0e9b6c7964acae7925a96a3963d91a064"
    }
  }, {
    "fullUrl": "Observation/5b8dce6385ef79d6bbfceb1fc2ad62f6a0ad95d9c97e38ca094304c773663405",
    "resource": {
      "resourceType": "Observation",
      "meta": {
        "profile": [ "https://www.netzwerk-universitaetsmedizin.de/fhir/StructureDefinition/frailty-score" ]
      },
      "identifier": [ {
        "type": {
          "coding": [ {
            "system": "http://terminology.hl7.org/CodeSystem/v2-0203",
            "code": "OBI",
            "display": "Observation Instance Identifier"
          } ]
        },
        "system": "https://mein.krankenhaus.de/fhir/NamingSystem/observationId",
        "value": "8186f5270550aa671aa92c8b618094202e8c47ed9b420283c5a946df7fcb0961",
        "assigner": {
          "reference": "Organization/3a4f3433bce81181bad2d8e0b8fafccf7dc800bc06f29be73dcb38b750a48f9a"
        }
      } ],
      "status": "final",
      "category": [ {
        "coding": [ {
          "system": "http://terminology.hl7.org/CodeSystem/observation-category",
          "code": "survey",
          "display": "Survey"
        } ]
      } ],
      "code": {
        "coding": [ {
          "system": "http://snomed.info/sct",
          "code": "763264000"
        } ],
        "text": "Frailty Scale Score"
      },
      "subject": {
        "reference": "Patient/388bf7d2cb8501bec8aec34b02c8ec24afd31a4b1d990748173f87fafcacb7e4"
      },
      "encounter": {
        "reference": "Encounter/d898144ecb5d517599f188a426ff42c53b3aeae6011f70d92012dcba0cb6877c"
      },
      "_effectiveDateTime": {
        "extension": [ {
          "url": "http://hl7.org/fhir/StructureDefinition/data-absent-reason",
          "valueCode": "unknown"
        } ]
      },
      "valueCodeableConcept": {
        "coding": [ {
          "system": "https://www.netzwerk-universitaetsmedizin.de/fhir/CodeSystem/frailty-score",
          "code": "5"
        } ]
      },
      "method": {
        "coding": [ {
          "system": "http://snomed.info/sct",
          "code": "445414007",
          "display": "Canadian Study of Health and Aging clinical frailty scale"
        } ]
      }
    },
    "request": {
      "method": "POST",
      "url": "Observation",
      "ifNoneExist": "identifier=https://mein.krankenhaus.de/fhir/NamingSystem/observationId|5b8dce6385ef79d6bbfceb1fc2ad62f6a0ad95d9c97e38ca094304c773663405"
    }
  }, {
    "fullUrl": "Observation/ca0ffebc6b6e40f131ec1a6562c63b7170753bd9b34b270ac95251733227ead0",
    "resource": {
      "resourceType": "Observation",
      "meta": {
        "profile": [ "https://www.netzwerk-universitaetsmedizin.de/fhir/StructureDefinition/body-weight" ]
      },
      "identifier": [ {
        "type": {
          "coding": [ {
            "system": "http://terminology.hl7.org/CodeSystem/v2-0203",
            "code": "OBI",
            "display": "Observation Instance Identifier"
          } ]
        },
        "system": "https://mein.krankenhaus.de/fhir/NamingSystem/observationId",
        "value": "dd68377c69cb1ab247147bf30e2969dc6457c92e4c69c33ddb2d888a3b189afd",
        "assigner": {
          "reference": "Organization/3a4f3433bce81181bad2d8e0b8fafccf7dc800bc06f29be73dcb38b750a48f9a"
        }
      } ],
      "status": "final",
      "category": [ {
        "coding": [ {
          "system": "http://terminology.hl7.org/CodeSystem/observation-category",
          "code": "vital-signs",
          "display": "Vital Signs"
        } ]
      } ],
      "code": {
        "coding": [ {
          "system": "http://loinc.org",
          "code": "29463-7"
        }, {
          "system": "http://snomed.info/sct",
          "code": "27113001"
        } ],
        "text": "Body Weight"
      },
      "subject": {
        "reference": "Patient/388bf7d2cb8501bec8aec34b02c8ec24afd31a4b1d990748173f87fafcacb7e4"
      },
      "encounter": {
        "reference": "Encounter/d898144ecb5d517599f188a426ff42c53b3aeae6011f70d92012dcba0cb6877c"
      },
      "_effectiveDateTime": {
        "extension": [ {
          "url": "http://hl7.org/fhir/StructureDefinition/data-absent-reason",
          "valueCode": "unknown"
        } ]
      },
      "valueQuantity": {
        "value": 95,
        "unit": "kilogram",
        "system": "http://unitsofmeasure.org",
        "code": "kg"
      }
    },
    "request": {
      "method": "POST",
      "url": "Observation",
      "ifNoneExist": "identifier=https://mein.krankenhaus.de/fhir/NamingSystem/observationId|ca0ffebc6b6e40f131ec1a6562c63b7170753bd9b34b270ac95251733227ead0"
    }
  }, {
    "fullUrl": "Observation/af40dad8b258b41789ac57268ea8025cb43c633f02507beff8f4a30c420a3584",
    "resource": {
      "resourceType": "Observation",
      "meta": {
        "profile": [ "https://www.netzwerk-universitaetsmedizin.de/fhir/StructureDefinition/body-height" ]
      },
      "identifier": [ {
        "type": {
          "coding": [ {
            "system": "http://terminology.hl7.org/CodeSystem/v2-0203",
            "code": "OBI",
            "display": "Observation Instance Identifier"
          } ]
        },
        "system": "https://mein.krankenhaus.de/fhir/NamingSystem/observationId",
        "value": "8d7bc0c25bfdabaef236b545ad0f2929459867f59b5c3cf9d724f88ad5fac59b",
        "assigner": {
          "reference": "Organization/3a4f3433bce81181bad2d8e0b8fafccf7dc800bc06f29be73dcb38b750a48f9a"
        }
      } ],
      "status": "final",
      "category": [ {
        "coding": [ {
          "system": "http://terminology.hl7.org/CodeSystem/observation-category",
          "code": "vital-signs",
          "display": "Vital Signs"
        } ]
      } ],
      "code": {
        "coding": [ {
          "system": "http://loinc.org",
          "code": "8302-2"
        }, {
          "system": "http://snomed.info/sct",
          "code": "50373000"
        } ],
        "text": "Body height"
      },
      "subject": {
        "reference": "Patient/388bf7d2cb8501bec8aec34b02c8ec24afd31a4b1d990748173f87fafcacb7e4"
      },
      "encounter": {
        "reference": "Encounter/d898144ecb5d517599f188a426ff42c53b3aeae6011f70d92012dcba0cb6877c"
      },
      "_effectiveDateTime": {
        "extension": [ {
          "url": "http://hl7.org/fhir/StructureDefinition/data-absent-reason",
          "valueCode": "unknown"
        } ]
      },
      "valueQuantity": {
        "value": 117,
        "unit": "centimeter",
        "system": "http://unitsofmeasure.org",
        "code": "cm"
      }
    },
    "request": {
      "method": "POST",
      "url": "Observation",
      "ifNoneExist": "identifier=https://mein.krankenhaus.de/fhir/NamingSystem/observationId|af40dad8b258b41789ac57268ea8025cb43c633f02507beff8f4a30c420a3584"
    }
  }, {
    "fullUrl": "Observation/8a81ff6e8f29b976b8395c3bbbf719a13f6e9d7e336bd791c16dc01f12ec1212",
    "resource": {
      "resourceType": "Observation",
      "meta": {
        "profile": [ "https://www.netzwerk-universitaetsmedizin.de/fhir/StructureDefinition/known-exposure" ]
      },
      "identifier": [ {
        "type": {
          "coding": [ {
            "system": "http://terminology.hl7.org/CodeSystem/v2-0203",
            "code": "OBI",
            "display": "Observation Instance Identifier"
          } ]
        },
        "system": "https://mein.krankenhaus.de/fhir/NamingSystem/observationId",
        "value": "64b8eb34015e54aa26ca0b46cf39842ce575277fff1799c426214c79dd6059d0",
        "assigner": {
          "reference": "Organization/3a4f3433bce81181bad2d8e0b8fafccf7dc800bc06f29be73dcb38b750a48f9a"
        }
      } ],
      "status": "final",
      "category": [ {
        "coding": [ {
          "system": "http://terminology.hl7.org/CodeSystem/observation-category",
          "code": "social-history",
          "display": "Social History"
        } ]
      } ],
      "code": {
        "coding": [ {
          "system": "http://loinc.org",
          "code": "88636-6"
        } ],
        "text": "Known exposure"
      },
      "subject": {
        "reference": "Patient/388bf7d2cb8501bec8aec34b02c8ec24afd31a4b1d990748173f87fafcacb7e4"
      },
      "encounter": {
        "reference": "Encounter/d898144ecb5d517599f188a426ff42c53b3aeae6011f70d92012dcba0cb6877c"
      },
      "_effectiveDateTime": {
        "extension": [ {
          "url": "http://hl7.org/fhir/StructureDefinition/data-absent-reason",
          "valueCode": "unknown"
        } ]
      },
      "dataAbsentReason": {
        "coding": [ {
          "system": "http://terminology.hl7.org/CodeSystem/data-absent-reason",
          "code": "unknown",
          "display": "Unknown"
        } ]
      }
    },
    "request": {
      "method": "POST",
      "url": "Observation",
      "ifNoneExist": "identifier=https://mein.krankenhaus.de/fhir/NamingSystem/observationId|8a81ff6e8f29b976b8395c3bbbf719a13f6e9d7e336bd791c16dc01f12ec1212"
    }
  }, {
    "fullUrl": "Condition/67cd45c89fede8cbe08505535dfe0dbdf3e2a848d315e4b8dfb68e99bc1e1fa4",
    "resource": {
      "resourceType": "Condition",
      "meta": {
        "profile": [ "https://www.netzwerk-universitaetsmedizin.de/fhir/StructureDefinition/symptoms-covid-19" ]
      },
      "identifier": [ {
        "system": "https://mein.krankenhaus.de/fhir/NamingSystem/conditionId",
        "value": "1b1364b6f00d42ff57d7d68f90573f836b3702480fd02311043e404e90a51992"
      } ],
      "clinicalStatus": {
        "coding": [ {
          "system": "http://terminology.hl7.org/CodeSystem/condition-clinical",
          "code": "active",
          "display": "Active"
        } ]
      },
      "verificationStatus": {
        "coding": [ {
          "system": "http://terminology.hl7.org/CodeSystem/condition-ver-status",
          "code": "confirmed",
          "display": "Confirmed"
        }, {
          "system": "http://snomed.info/sct",
          "code": "410605003",
          "display": "Confirmed present (qualifier value)"
        } ]
      },
      "category": [ {
        "coding": [ {
          "system": "http://loinc.org",
          "code": "75325-1"
        } ]
      } ],
      "severity": {
        "coding": [ {
          "system": "http://snomed.info/sct",
          "code": "442452003"
        } ]
      },
      "code": {
        "coding": [ {
          "system": "http://snomed.info/sct",
          "code": "21522001"
        } ]
      },
      "subject": {
        "reference": "Patient/388bf7d2cb8501bec8aec34b02c8ec24afd31a4b1d990748173f87fafcacb7e4"
      },
      "encounter": {
        "reference": "Encounter/d898144ecb5d517599f188a426ff42c53b3aeae6011f70d92012dcba0cb6877c"
      },
      "_recordedDate": {
        "extension": [ {
          "url": "http://hl7.org/fhir/StructureDefinition/data-absent-reason",
          "valueCode": "unknown"
        } ]
      }
    },
    "request": {
      "method": "POST",
      "url": "Condition",
      "ifNoneExist": "identifier=https://mein.krankenhaus.de/fhir/NamingSystem/conditionId|67cd45c89fede8cbe08505535dfe0dbdf3e2a848d315e4b8dfb68e99bc1e1fa4"
    }
  }, {
    "fullUrl": "Condition/cead51e96869e90a77d70de449d6d2b90d698d23b50727bf336c2b02a3609663",
    "resource": {
      "resourceType": "Condition",
      "meta": {
        "profile": [ "https://www.netzwerk-universitaetsmedizin.de/fhir/StructureDefinition/symptoms-covid-19" ]
      },
      "identifier": [ {
        "system": "https://mein.krankenhaus.de/fhir/NamingSystem/conditionId",
        "value": "8a0b282cb89142d20acce6711dd6304fe05f1cfc8f30d461d76aa533059fe9aa"
      } ],
      "clinicalStatus": {
        "coding": [ {
          "system": "http://terminology.hl7.org/CodeSystem/condition-clinical",
          "code": "active",
          "display": "Active"
        } ]
      },
      "verificationStatus": {
        "coding": [ {
          "system": "http://terminology.hl7.org/CodeSystem/condition-ver-status",
          "code": "refuted",
          "display": "Refuted"
        }, {
          "system": "http://snomed.info/sct",
          "code": "410594000",
          "display": "Definitely NOT present (qualifier value)"
        } ]
      },
      "category": [ {
        "coding": [ {
          "system": "http://loinc.org",
          "code": "75325-1"
        } ]
      } ],
      "code": {
        "coding": [ {
          "system": "http://snomed.info/sct",
          "code": "62315008"
        } ]
      },
      "subject": {
        "reference": "Patient/388bf7d2cb8501bec8aec34b02c8ec24afd31a4b1d990748173f87fafcacb7e4"
      },
      "encounter": {
        "reference": "Encounter/d898144ecb5d517599f188a426ff42c53b3aeae6011f70d92012dcba0cb6877c"
      },
      "_recordedDate": {
        "extension": [ {
          "url": "http://hl7.org/fhir/StructureDefinition/data-absent-reason",
          "valueCode": "unknown"
        } ]
      }
    },
    "request": {
      "method": "POST",
      "url": "Condition",
      "ifNoneExist": "identifier=https://mein.krankenhaus.de/fhir/NamingSystem/conditionId|cead51e96869e90a77d70de449d6d2b90d698d23b50727bf336c2b02a3609663"
    }
  }, {
    "fullUrl": "Condition/e28b6eb48a754c32bb77d29081cbc5dfe21c6ad0055e335bb80336f9abde438a",
    "resource": {
      "resourceType": "Condition",
      "meta": {
        "profile": [ "https://www.netzwerk-universitaetsmedizin.de/fhir/StructureDefinition/symptoms-covid-19" ]
      },
      "modifierExtension": [ {
        "url": "https://www.netzwerk-universitaetsmedizin.de/fhir/StructureDefinition/uncertainty-of-presence",
        "valueCodeableConcept": {
          "coding": [ {
            "system": "http://snomed.info/sct",
            "code": "261665006",
            "display": "Unknown (qualifier value)"
          } ],
          "text": "Presence unknown."
        }
      } ],
      "identifier": [ {
        "system": "https://mein.krankenhaus.de/fhir/NamingSystem/conditionId",
        "value": "a1fbdd0e45320727d4f1e6490f766e2ac521eb35266233b09b734c6b061d84dd"
      } ],
      "clinicalStatus": {
        "coding": [ {
          "system": "http://terminology.hl7.org/CodeSystem/condition-clinical",
          "code": "active",
          "display": "Active"
        } ]
      },
      "category": [ {
        "coding": [ {
          "system": "http://loinc.org",
          "code": "75325-1"
        } ]
      } ],
      "code": {
        "coding": [ {
          "system": "http://snomed.info/sct",
          "code": "422400008"
        } ]
      },
      "subject": {
        "reference": "Patient/388bf7d2cb8501bec8aec34b02c8ec24afd31a4b1d990748173f87fafcacb7e4"
      },
      "encounter": {
        "reference": "Encounter/d898144ecb5d517599f188a426ff42c53b3aeae6011f70d92012dcba0cb6877c"
      },
      "_recordedDate": {
        "extension": [ {
          "url": "http://hl7.org/fhir/StructureDefinition/data-absent-reason",
          "valueCode": "unknown"
        } ]
      }
    },
    "request": {
      "method": "POST",
      "url": "Condition",
      "ifNoneExist": "identifier=https://mein.krankenhaus.de/fhir/NamingSystem/conditionId|e28b6eb48a754c32bb77d29081cbc5dfe21c6ad0055e335bb80336f9abde438a"
    }
  }, {
    "fullUrl": "Condition/cbfccfeb903798d976fb7861bc51b013b32dd131dc8ec486c00a1938370d225a",
    "resource": {
      "resourceType": "Condition",
      "meta": {
        "profile": [ "https://www.netzwerk-universitaetsmedizin.de/fhir/StructureDefinition/symptoms-covid-19" ]
      },
      "modifierExtension": [ {
        "url": "https://www.netzwerk-universitaetsmedizin.de/fhir/StructureDefinition/uncertainty-of-presence",
        "valueCodeableConcept": {
          "coding": [ {
            "system": "http://snomed.info/sct",
            "code": "261665006",
            "display": "Unknown (qualifier value)"
          } ],
          "text": "Presence unknown."
        }
      } ],
      "identifier": [ {
        "system": "https://mein.krankenhaus.de/fhir/NamingSystem/conditionId",
        "value": "a13bf9f64759e1795d174267f113a388a2a1c157409264ecb6a99f8067fd5355"
      } ],
      "clinicalStatus": {
        "coding": [ {
          "system": "http://terminology.hl7.org/CodeSystem/condition-clinical",
          "code": "active",
          "display": "Active"
        } ]
      },
      "category": [ {
        "coding": [ {
          "system": "http://loinc.org",
          "code": "75325-1"
        } ]
      } ],
      "code": {
        "coding": [ {
          "system": "http://snomed.info/sct",
          "code": "49727002"
        } ]
      },
      "subject": {
        "reference": "Patient/388bf7d2cb8501bec8aec34b02c8ec24afd31a4b1d990748173f87fafcacb7e4"
      },
      "encounter": {
        "reference": "Encounter/d898144ecb5d517599f188a426ff42c53b3aeae6011f70d92012dcba0cb6877c"
      },
      "_recordedDate": {
        "extension": [ {
          "url": "http://hl7.org/fhir/StructureDefinition/data-absent-reason",
          "valueCode": "unknown"
        } ]
      }
    },
    "request": {
      "method": "POST",
      "url": "Condition",
      "ifNoneExist": "identifier=https://mein.krankenhaus.de/fhir/NamingSystem/conditionId|cbfccfeb903798d976fb7861bc51b013b32dd131dc8ec486c00a1938370d225a"
    }
  }, {
    "fullUrl": "Condition/65b040acfc314778cb784125e4695a9c5ae5cca548d963cd3d56e761840f8f65",
    "resource": {
      "resourceType": "Condition",
      "meta": {
        "profile": [ "https://www.netzwerk-universitaetsmedizin.de/fhir/StructureDefinition/symptoms-covid-19" ]
      },
      "identifier": [ {
        "system": "https://mein.krankenhaus.de/fhir/NamingSystem/conditionId",
        "value": "e0852e13134f21bac7ae6e1b5cab20e958ab1510d2e3add3c5ae989b9db133df"
      } ],
      "clinicalStatus": {
        "coding": [ {
          "system": "http://terminology.hl7.org/CodeSystem/condition-clinical",
          "code": "active",
          "display": "Active"
        } ]
      },
      "verificationStatus": {
        "coding": [ {
          "system": "http://terminology.hl7.org/CodeSystem/condition-ver-status",
          "code": "confirmed",
          "display": "Confirmed"
        }, {
          "system": "http://snomed.info/sct",
          "code": "410605003",
          "display": "Confirmed present (qualifier value)"
        } ]
      },
      "category": [ {
        "coding": [ {
          "system": "http://loinc.org",
          "code": "75325-1"
        } ]
      } ],
      "severity": {
        "coding": [ {
          "system": "http://snomed.info/sct",
          "code": "24484000"
        } ]
      },
      "code": {
        "coding": [ {
          "system": "http://snomed.info/sct",
          "code": "267036007"
        } ]
      },
      "subject": {
        "reference": "Patient/388bf7d2cb8501bec8aec34b02c8ec24afd31a4b1d990748173f87fafcacb7e4"
      },
      "encounter": {
        "reference": "Encounter/d898144ecb5d517599f188a426ff42c53b3aeae6011f70d92012dcba0cb6877c"
      },
      "_recordedDate": {
        "extension": [ {
          "url": "http://hl7.org/fhir/StructureDefinition/data-absent-reason",
          "valueCode": "unknown"
        } ]
      }
    },
    "request": {
      "method": "POST",
      "url": "Condition",
      "ifNoneExist": "identifier=https://mein.krankenhaus.de/fhir/NamingSystem/conditionId|65b040acfc314778cb784125e4695a9c5ae5cca548d963cd3d56e761840f8f65"
    }
  }, {
    "fullUrl": "Condition/b434f42fbde7823c48f73e7de477526a39a8e37de4457d686f1151890e063e25",
    "resource": {
      "resourceType": "Condition",
      "meta": {
        "profile": [ "https://www.netzwerk-universitaetsmedizin.de/fhir/StructureDefinition/symptoms-covid-19" ]
      },
      "identifier": [ {
        "system": "https://mein.krankenhaus.de/fhir/NamingSystem/conditionId",
        "value": "a2c5f34fd751e04c5f805418acfb03b825a4ff8359db77e5b8ebe3685f1fc10f"
      } ],
      "clinicalStatus": {
        "coding": [ {
          "system": "http://terminology.hl7.org/CodeSystem/condition-clinical",
          "code": "active",
          "display": "Active"
        } ]
      },
      "verificationStatus": {
        "coding": [ {
          "system": "http://terminology.hl7.org/CodeSystem/condition-ver-status",
          "code": "refuted",
          "display": "Refuted"
        }, {
          "system": "http://snomed.info/sct",
          "code": "410594000",
          "display": "Definitely NOT present (qualifier value)"
        } ]
      },
      "category": [ {
        "coding": [ {
          "system": "http://loinc.org",
          "code": "75325-1"
        } ]
      } ],
      "code": {
        "coding": [ {
          "system": "http://snomed.info/sct",
          "code": "422587007"
        } ]
      },
      "subject": {
        "reference": "Patient/388bf7d2cb8501bec8aec34b02c8ec24afd31a4b1d990748173f87fafcacb7e4"
      },
      "encounter": {
        "reference": "Encounter/d898144ecb5d517599f188a426ff42c53b3aeae6011f70d92012dcba0cb6877c"
      },
      "_recordedDate": {
        "extension": [ {
          "url": "http://hl7.org/fhir/StructureDefinition/data-absent-reason",
          "valueCode": "unknown"
        } ]
      }
    },
    "request": {
      "method": "POST",
      "url": "Condition",
      "ifNoneExist": "identifier=https://mein.krankenhaus.de/fhir/NamingSystem/conditionId|b434f42fbde7823c48f73e7de477526a39a8e37de4457d686f1151890e063e25"
    }
  }, {
    "fullUrl": "Condition/f20aaa0097ddfe681343b05ff1f1e5be1ca93f755268124e3eb7ea621e84a1df",
    "resource": {
      "resourceType": "Condition",
      "meta": {
        "profile": [ "https://www.netzwerk-universitaetsmedizin.de/fhir/StructureDefinition/symptoms-covid-19" ]
      },
      "identifier": [ {
        "system": "https://mein.krankenhaus.de/fhir/NamingSystem/conditionId",
        "value": "c6894f3e9fa302c2abbd122918c91d4f6fb137339dded2709744c3b8fbc0e621"
      } ],
      "clinicalStatus": {
        "coding": [ {
          "system": "http://terminology.hl7.org/CodeSystem/condition-clinical",
          "code": "active",
          "display": "Active"
        } ]
      },
      "verificationStatus": {
        "coding": [ {
          "system": "http://terminology.hl7.org/CodeSystem/condition-ver-status",
          "code": "refuted",
          "display": "Refuted"
        }, {
          "system": "http://snomed.info/sct",
          "code": "410594000",
          "display": "Definitely NOT present (qualifier value)"
        } ]
      },
      "category": [ {
        "coding": [ {
          "system": "http://loinc.org",
          "code": "75325-1"
        } ]
      } ],
      "code": {
        "coding": [ {
          "system": "http://snomed.info/sct",
          "code": "426000000"
        } ]
      },
      "subject": {
        "reference": "Patient/388bf7d2cb8501bec8aec34b02c8ec24afd31a4b1d990748173f87fafcacb7e4"
      },
      "encounter": {
        "reference": "Encounter/d898144ecb5d517599f188a426ff42c53b3aeae6011f70d92012dcba0cb6877c"
      },
      "_recordedDate": {
        "extension": [ {
          "url": "http://hl7.org/fhir/StructureDefinition/data-absent-reason",
          "valueCode": "unknown"
        } ]
      }
    },
    "request": {
      "method": "POST",
      "url": "Condition",
      "ifNoneExist": "identifier=https://mein.krankenhaus.de/fhir/NamingSystem/conditionId|f20aaa0097ddfe681343b05ff1f1e5be1ca93f755268124e3eb7ea621e84a1df"
    }
  }, {
    "fullUrl": "Condition/7382f18aa8e076ecf7cd1dcf47233937545a937d9545f03062ac4bbc11d10309",
    "resource": {
      "resourceType": "Condition",
      "meta": {
        "profile": [ "https://www.netzwerk-universitaetsmedizin.de/fhir/StructureDefinition/symptoms-covid-19" ]
      },
      "identifier": [ {
        "system": "https://mein.krankenhaus.de/fhir/NamingSystem/conditionId",
        "value": "da3b41f7ac113b89e84d9d28578531e55918750be030a4e136cfab68e7556487"
      } ],
      "clinicalStatus": {
        "coding": [ {
          "system": "http://terminology.hl7.org/CodeSystem/condition-clinical",
          "code": "active",
          "display": "Active"
        } ]
      },
      "verificationStatus": {
        "coding": [ {
          "system": "http://terminology.hl7.org/CodeSystem/condition-ver-status",
          "code": "refuted",
          "display": "Refuted"
        }, {
          "system": "http://snomed.info/sct",
          "code": "410594000",
          "display": "Definitely NOT present (qualifier value)"
        } ]
      },
      "category": [ {
        "coding": [ {
          "system": "http://loinc.org",
          "code": "75325-1"
        } ]
      } ],
      "code": {
        "coding": [ {
          "system": "http://snomed.info/sct",
          "code": "25064002"
        } ]
      },
      "subject": {
        "reference": "Patient/388bf7d2cb8501bec8aec34b02c8ec24afd31a4b1d990748173f87fafcacb7e4"
      },
      "encounter": {
        "reference": "Encounter/d898144ecb5d517599f188a426ff42c53b3aeae6011f70d92012dcba0cb6877c"
      },
      "_recordedDate": {
        "extension": [ {
          "url": "http://hl7.org/fhir/StructureDefinition/data-absent-reason",
          "valueCode": "unknown"
        } ]
      }
    },
    "request": {
      "method": "POST",
      "url": "Condition",
      "ifNoneExist": "identifier=https://mein.krankenhaus.de/fhir/NamingSystem/conditionId|7382f18aa8e076ecf7cd1dcf47233937545a937d9545f03062ac4bbc11d10309"
    }
  }, {
    "fullUrl": "Condition/222f89bce240cab0ea961a6f31458e2d62950114b87944b07fd5574ad8db0bdf",
    "resource": {
      "resourceType": "Condition",
      "meta": {
        "profile": [ "https://www.netzwerk-universitaetsmedizin.de/fhir/StructureDefinition/symptoms-covid-19" ]
      },
      "identifier": [ {
        "system": "https://mein.krankenhaus.de/fhir/NamingSystem/conditionId",
        "value": "2e19c9995cf9eddb65361306f1ca5e9d373c24b54884e43d9f317f0f24d490b2"
      } ],
      "clinicalStatus": {
        "coding": [ {
          "system": "http://terminology.hl7.org/CodeSystem/condition-clinical",
          "code": "active",
          "display": "Active"
        } ]
      },
      "verificationStatus": {
        "coding": [ {
          "system": "http://terminology.hl7.org/CodeSystem/condition-ver-status",
          "code": "confirmed",
          "display": "Confirmed"
        }, {
          "system": "http://snomed.info/sct",
          "code": "410605003",
          "display": "Confirmed present (qualifier value)"
        } ]
      },
      "category": [ {
        "coding": [ {
          "system": "http://loinc.org",
          "code": "75325-1"
        } ]
      } ],
      "severity": {
        "coding": [ {
          "system": "http://snomed.info/sct",
          "code": "255604002"
        } ]
      },
      "code": {
        "coding": [ {
          "system": "http://snomed.info/sct",
          "code": "385432009",
          "display": "Not applicable (qualifier value)"
        } ],
        "text": "<Freitext>"
      },
      "subject": {
        "reference": "Patient/388bf7d2cb8501bec8aec34b02c8ec24afd31a4b1d990748173f87fafcacb7e4"
      },
      "encounter": {
        "reference": "Encounter/d898144ecb5d517599f188a426ff42c53b3aeae6011f70d92012dcba0cb6877c"
      },
      "_recordedDate": {
        "extension": [ {
          "url": "http://hl7.org/fhir/StructureDefinition/data-absent-reason",
          "valueCode": "unknown"
        } ]
      }
    },
    "request": {
      "method": "POST",
      "url": "Condition",
      "ifNoneExist": "identifier=https://mein.krankenhaus.de/fhir/NamingSystem/conditionId|222f89bce240cab0ea961a6f31458e2d62950114b87944b07fd5574ad8db0bdf"
    }
  }, {
    "fullUrl": "Procedure/8d2398b36a379e2db65893682f003dbc8e092deb824d766f0be32c0cc3ed8087",
    "resource": {
      "resourceType": "Procedure",
      "meta": {
        "profile": [ "https://www.netzwerk-universitaetsmedizin.de/fhir/StructureDefinition/dialysis" ]
      },
      "identifier": [ {
        "system": "https://mein.krankenhaus.de/fhir/NamingSystem/procedureId",
        "value": "7fb91f0c252f5162df03e79960228b7f6d4b143bb6f813b51277f4c7e81287af"
      } ],
      "status": "in-progress",
      "category": {
        "coding": [ {
          "system": "http://snomed.info/sct",
          "code": "277132007",
          "display": "Therapeutic procedure (procedure)"
        } ]
      },
      "code": {
        "coding": [ {
          "system": "http://snomed.info/sct",
          "code": "108241001"
        } ],
        "text": "Dialysis"
      },
      "subject": {
        "reference": "Patient/388bf7d2cb8501bec8aec34b02c8ec24afd31a4b1d990748173f87fafcacb7e4"
      },
      "encounter": {
        "reference": "Encounter/d898144ecb5d517599f188a426ff42c53b3aeae6011f70d92012dcba0cb6877c"
      },
      "_performedDateTime": {
        "extension": [ {
          "url": "http://hl7.org/fhir/StructureDefinition/data-absent-reason",
          "valueCode": "unknown"
        } ]
      }
    },
    "request": {
      "method": "POST",
      "url": "Procedure",
      "ifNoneExist": "identifier=https://mein.krankenhaus.de/fhir/NamingSystem/procedureId|8d2398b36a379e2db65893682f003dbc8e092deb824d766f0be32c0cc3ed8087"
    }
  }, {
    "fullUrl": "Procedure/9b09b966d513f3bc8f4fc14e20a36e917d0fcdde24383b5c81cf09a6c39f3e36",
    "resource": {
      "resourceType": "Procedure",
      "meta": {
        "profile": [ "https://www.netzwerk-universitaetsmedizin.de/fhir/StructureDefinition/apheresis" ]
      },
      "identifier": [ {
        "system": "https://mein.krankenhaus.de/fhir/NamingSystem/procedureId",
        "value": "99b69034b4ae6b7e88b309fcf40048061b45d7e31331a40fa12d71872646501c"
      } ],
      "status": "in-progress",
      "category": {
        "coding": [ {
          "system": "http://snomed.info/sct",
          "code": "277132007",
          "display": "Therapeutic procedure (procedure)"
        } ]
      },
      "code": {
        "coding": [ {
          "system": "http://snomed.info/sct",
          "code": "127788007"
        } ],
        "text": "Apheresis"
      },
      "subject": {
        "reference": "Patient/388bf7d2cb8501bec8aec34b02c8ec24afd31a4b1d990748173f87fafcacb7e4"
      },
      "encounter": {
        "reference": "Encounter/d898144ecb5d517599f188a426ff42c53b3aeae6011f70d92012dcba0cb6877c"
      },
      "_performedDateTime": {
        "extension": [ {
          "url": "http://hl7.org/fhir/StructureDefinition/data-absent-reason",
          "valueCode": "unknown"
        } ]
      }
    },
    "request": {
      "method": "POST",
      "url": "Procedure",
      "ifNoneExist": "identifier=https://mein.krankenhaus.de/fhir/NamingSystem/procedureId|9b09b966d513f3bc8f4fc14e20a36e917d0fcdde24383b5c81cf09a6c39f3e36"
    }
  }, {
    "fullUrl": "Procedure/6bece9623e6866e3b482e202d877e64f2c112d080061e09abef7655bc203783f",
    "resource": {
      "resourceType": "Procedure",
      "meta": {
        "profile": [ "https://www.netzwerk-universitaetsmedizin.de/fhir/StructureDefinition/prone-position" ]
      },
      "identifier": [ {
        "system": "https://mein.krankenhaus.de/fhir/NamingSystem/procedureId",
        "value": "0e0ec5f698f1e85e6ff810720949a8376c7d132f0127c1c4a309c9d69e0a92d8"
      } ],
      "status": "not-done",
      "category": {
        "coding": [ {
          "system": "http://snomed.info/sct",
          "code": "225287004",
          "display": "Procedures relating to positioning and support (procedure)"
        } ]
      },
      "code": {
        "coding": [ {
          "system": "http://snomed.info/sct",
          "code": "431182000"
        } ],
        "text": "Prone position"
      },
      "subject": {
        "reference": "Patient/388bf7d2cb8501bec8aec34b02c8ec24afd31a4b1d990748173f87fafcacb7e4"
      },
      "encounter": {
        "reference": "Encounter/d898144ecb5d517599f188a426ff42c53b3aeae6011f70d92012dcba0cb6877c"
      },
      "_performedDateTime": {
        "extension": [ {
          "url": "http://hl7.org/fhir/StructureDefinition/data-absent-reason",
          "valueCode": "not-performed"
        } ]
      }
    },
    "request": {
      "method": "POST",
      "url": "Procedure",
      "ifNoneExist": "identifier=https://mein.krankenhaus.de/fhir/NamingSystem/procedureId|6bece9623e6866e3b482e202d877e64f2c112d080061e09abef7655bc203783f"
    }
  }, {
    "fullUrl": "Procedure/a59eda363aeb94c476b01d19f0aca7ac1d578682432f43afbae56af9191b24b3",
    "resource": {
      "resourceType": "Procedure",
      "meta": {
        "profile": [ "https://www.netzwerk-universitaetsmedizin.de/fhir/StructureDefinition/respiratory-therapies" ]
      },
      "identifier": [ {
        "system": "https://mein.krankenhaus.de/fhir/NamingSystem/procedureId",
        "value": "bfeba22171868aa09df0dc2e14dbac73b7234e4e18b58c00c91d7a5e7d8e4613"
      } ],
      "status": "not-done",
      "category": {
        "coding": [ {
          "system": "http://snomed.info/sct",
          "code": "277132007",
          "display": "Therapeutic procedure (procedure)"
        } ]
      },
      "code": {
        "coding": [ {
          "system": "http://snomed.info/sct",
          "code": "40617009",
          "display": "Artificial respiration (procedure)"
        } ]
      },
      "subject": {
        "reference": "Patient/388bf7d2cb8501bec8aec34b02c8ec24afd31a4b1d990748173f87fafcacb7e4"
      },
      "encounter": {
        "reference": "Encounter/d898144ecb5d517599f188a426ff42c53b3aeae6011f70d92012dcba0cb6877c"
      },
      "_performedDateTime": {
        "extension": [ {
          "url": "http://hl7.org/fhir/StructureDefinition/data-absent-reason",
          "valueCode": "unknown"
        } ]
      }
    },
    "request": {
      "method": "POST",
      "url": "Procedure",
      "ifNoneExist": "identifier=https://mein.krankenhaus.de/fhir/NamingSystem/procedureId|a59eda363aeb94c476b01d19f0aca7ac1d578682432f43afbae56af9191b24b3"
    }
  }, {
    "fullUrl": "Observation/a9dcca26c553a906c9cb5cecc82040dfe93ab9bb76e6db8605d3d6a50252714a",
    "resource": {
      "resourceType": "Observation",
      "meta": {
        "profile": [ "https://www.netzwerk-universitaetsmedizin.de/fhir/StructureDefinition/patient-in-icu" ]
      },
      "identifier": [ {
        "system": "https://mein.krankenhaus.de/fhir/NamingSystem/observationId",
        "value": "7df750f0d432ccff5e810efb566f647515c8739ca71d17a81b401f2d94796191"
      } ],
      "status": "final",
      "category": [ {
        "coding": [ {
          "system": "http://terminology.hl7.org/CodeSystem/observation-category",
          "code": "survey",
          "display": "Survey"
        } ]
      } ],
      "code": {
        "coding": [ {
          "system": "https://www.netzwerk-universitaetsmedizin.de/fhir/CodeSystem/ecrf-parameter-codes",
          "code": "01",
          "display": "Is the patient in the intensive care unit?"
        } ]
      },
      "subject": {
        "reference": "Patient/388bf7d2cb8501bec8aec34b02c8ec24afd31a4b1d990748173f87fafcacb7e4"
      },
      "encounter": {
        "reference": "Encounter/d898144ecb5d517599f188a426ff42c53b3aeae6011f70d92012dcba0cb6877c"
      },
      "_effectiveDateTime": {
        "extension": [ {
          "url": "http://hl7.org/fhir/StructureDefinition/data-absent-reason",
          "valueCode": "unknown"
        } ]
      },
      "valueCodeableConcept": {
        "coding": [ {
          "system": "http://snomed.info/sct",
          "code": "261665006"
        } ]
      }
    },
    "request": {
      "method": "POST",
      "url": "Observation",
      "ifNoneExist": "identifier=https://mein.krankenhaus.de/fhir/NamingSystem/observationId|a9dcca26c553a906c9cb5cecc82040dfe93ab9bb76e6db8605d3d6a50252714a"
    }
  }, {
    "fullUrl": "Condition/59a158531a63f6ea39b1c422370ba2209b617d7aaae8c1d0bf7e544a4a651edc",
    "resource": {
      "resourceType": "Condition",
      "meta": {
        "profile": [ "https://www.netzwerk-universitaetsmedizin.de/fhir/StructureDefinition/dependence-on-ventilator" ]
      },
      "identifier": [ {
        "system": "https://mein.krankenhaus.de/fhir/NamingSystem/conditionId",
        "value": "76e4ede410eb2e76397b0c7360037196b81d18e74a22cb6b390cd42b1f0f30a3"
      } ],
      "clinicalStatus": {
        "coding": [ {
          "system": "http://terminology.hl7.org/CodeSystem/condition-clinical",
          "code": "active",
          "display": "Active"
        } ]
      },
      "verificationStatus": {
        "coding": [ {
          "system": "http://terminology.hl7.org/CodeSystem/condition-ver-status",
          "code": "confirmed",
          "display": "Confirmed"
        }, {
          "system": "http://snomed.info/sct",
          "code": "410605003",
          "display": "Confirmed present (qualifier value)"
        } ]
      },
      "category": [ {
        "coding": [ {
          "system": "http://snomed.info/sct",
          "code": "404989005",
          "display": "Ventilation status (observable entity)"
        } ]
      } ],
      "code": {
        "coding": [ {
          "system": "http://snomed.info/sct",
          "code": "444932008"
        } ]
      },
      "subject": {
        "reference": "Patient/388bf7d2cb8501bec8aec34b02c8ec24afd31a4b1d990748173f87fafcacb7e4"
      },
      "encounter": {
        "reference": "Encounter/d898144ecb5d517599f188a426ff42c53b3aeae6011f70d92012dcba0cb6877c"
      },
      "_recordedDate": {
        "extension": [ {
          "url": "http://hl7.org/fhir/StructureDefinition/data-absent-reason",
          "valueCode": "unknown"
        } ]
      }
    },
    "request": {
      "method": "POST",
      "url": "Condition",
      "ifNoneExist": "identifier=https://mein.krankenhaus.de/fhir/NamingSystem/conditionId|59a158531a63f6ea39b1c422370ba2209b617d7aaae8c1d0bf7e544a4a651edc"
    }
  }, {
    "fullUrl": "Observation/cb73b44230c1723737c711a91b34176ca473c181825e4adb3d12f72fcde51f93",
    "resource": {
      "resourceType": "Observation",
      "meta": {
        "profile": [ "https://www.netzwerk-universitaetsmedizin.de/fhir/StructureDefinition/discharge-disposition" ]
      },
      "identifier": [ {
        "type": {
          "coding": [ {
            "system": "http://terminology.hl7.org/CodeSystem/v2-0203",
            "code": "OBI",
            "display": "Observation Instance Identifier"
          } ]
        },
        "system": "https://mein.krankenhaus.de/fhir/NamingSystem/observationId",
        "value": "c89c97851df512a4f3bbb351a7a94708ffee5c4c990b20bb73268a2dfc082354",
        "assigner": {
          "reference": "Organization/3a4f3433bce81181bad2d8e0b8fafccf7dc800bc06f29be73dcb38b750a48f9a"
        }
      } ],
      "status": "final",
      "category": [ {
        "coding": [ {
          "system": "http://terminology.hl7.org/CodeSystem/observation-category",
          "code": "social-history",
          "display": "Social History"
        } ]
      } ],
      "code": {
        "coding": [ {
          "system": "http://loinc.org",
          "code": "55128-3"
        } ],
        "text": "type of Discharge"
      },
      "subject": {
        "reference": "Patient/388bf7d2cb8501bec8aec34b02c8ec24afd31a4b1d990748173f87fafcacb7e4"
      },
      "encounter": {
        "reference": "Encounter/d898144ecb5d517599f188a426ff42c53b3aeae6011f70d92012dcba0cb6877c"
      },
      "_effectiveDateTime": {
        "extension": [ {
          "url": "http://hl7.org/fhir/StructureDefinition/data-absent-reason",
          "valueCode": "unknown"
        } ]
      },
      "valueCodeableConcept": {
        "coding": [ {
          "system": "http://snomed.info/sct",
          "code": "371827001"
        } ]
      }
    },
    "request": {
      "method": "POST",
      "url": "Observation",
      "ifNoneExist": "identifier=https://mein.krankenhaus.de/fhir/NamingSystem/observationId|cb73b44230c1723737c711a91b34176ca473c181825e4adb3d12f72fcde51f93"
    }
  }, {
    "fullUrl": "Observation/d5f3fe3959d8dd792958614e98add67fe6b87a5403315843cf45768af0b903c5",
    "resource": {
      "resourceType": "Observation",
      "meta": {
        "profile": [ "https://www.netzwerk-universitaetsmedizin.de/fhir/StructureDefinition/sars-cov-2-rt-pcr" ]
      },
      "identifier": [ {
        "type": {
          "coding": [ {
            "system": "http://terminology.hl7.org/CodeSystem/v2-0203",
            "code": "OBI",
            "display": "Observation Instance Identifier"
          } ]
        },
        "system": "https://mein.krankenhaus.de/fhir/NamingSystem/observationId",
        "value": "0e8cfce14e1bfe676251f2ead355b573cf580e4c210653f00e2120fb89645add",
        "assigner": {
          "reference": "Organization/3a4f3433bce81181bad2d8e0b8fafccf7dc800bc06f29be73dcb38b750a48f9a"
        }
      } ],
      "status": "final",
      "category": [ {
        "coding": [ {
          "system": "http://terminology.hl7.org/CodeSystem/observation-category",
          "code": "laboratory",
          "display": "Laboratory"
        }, {
          "system": "http://loinc.org",
          "code": "26436-6",
          "display": "Laboratory studies (set)"
        } ]
      } ],
      "code": {
        "coding": [ {
          "system": "http://loinc.org",
          "code": "94500-6"
        } ]
      },
      "subject": {
        "reference": "Patient/388bf7d2cb8501bec8aec34b02c8ec24afd31a4b1d990748173f87fafcacb7e4"
      },
      "encounter": {
        "reference": "Encounter/d898144ecb5d517599f188a426ff42c53b3aeae6011f70d92012dcba0cb6877c"
      },
      "_effectiveDateTime": {
        "extension": [ {
          "url": "http://hl7.org/fhir/StructureDefinition/data-absent-reason",
          "valueCode": "unknown"
        } ]
      },
      "valueCodeableConcept": {
        "coding": [ {
          "system": "http://snomed.info/sct",
          "code": "260415000"
        } ]
      }
    },
    "request": {
      "method": "POST",
      "url": "Observation",
      "ifNoneExist": "identifier=https://mein.krankenhaus.de/fhir/NamingSystem/observationId|d5f3fe3959d8dd792958614e98add67fe6b87a5403315843cf45768af0b903c5"
    }
  }, {
    "fullUrl": "Observation/e4474388661c6bba9962e6e585d90e87198fc0947de3dccf39fd56c92eb62fe7",
    "resource": {
      "resourceType": "Observation",
      "meta": {
        "profile": [ "https://www.medizininformatik-initiative.de/fhir/core/modul-labor/StructureDefinition/ObservationLab" ]
      },
      "identifier": [ {
        "type": {
          "coding": [ {
            "system": "http://terminology.hl7.org/CodeSystem/v2-0203",
            "code": "OBI",
            "display": "Observation Instance Identifier"
          } ]
        },
        "system": "https://mein.krankenhaus.de/fhir/NamingSystem/observationId",
        "value": "14f43af9108586ce241c5768da9afb772b53db44efe5733c01abc284957ac9aa",
        "assigner": {
          "reference": "Organization/3a4f3433bce81181bad2d8e0b8fafccf7dc800bc06f29be73dcb38b750a48f9a"
        }
      } ],
      "status": "final",
      "category": [ {
        "coding": [ {
          "system": "http://terminology.hl7.org/CodeSystem/observation-category",
          "code": "laboratory",
          "display": "Laboratory"
        }, {
          "system": "http://loinc.org",
          "code": "26436-6"
        } ]
      } ],
      "code": {
        "coding": [ {
          "system": "http://loinc.org",
          "code": "71426-1",
          "display": "c-reactive-protein-in-blood-by-high-sensitivity-method"
        } ],
        "text": "crp"
      },
      "subject": {
        "reference": "Patient/388bf7d2cb8501bec8aec34b02c8ec24afd31a4b1d990748173f87fafcacb7e4"
      },
      "encounter": {
        "reference": "Encounter/d898144ecb5d517599f188a426ff42c53b3aeae6011f70d92012dcba0cb6877c"
      },
      "effectiveDateTime": "2020-05-10T08:17:00+00:00",
      "valueQuantity": {
        "value": 79.79541721129712,
        "unit": "mg/dL",
        "system": "http://unitsofmeasure.org",
        "code": "mg/dL"
      }
    },
    "request": {
      "method": "POST",
      "url": "Observation",
      "ifNoneExist": "identifier=https://mein.krankenhaus.de/fhir/NamingSystem/observationId|e4474388661c6bba9962e6e585d90e87198fc0947de3dccf39fd56c92eb62fe7"
    }
  }, {
    "fullUrl": "Observation/58003eeee60308b0deb258ade61f9b3b5ca86824666cfd2289309824d3126dbb",
    "resource": {
      "resourceType": "Observation",
      "meta": {
        "profile": [ "https://www.medizininformatik-initiative.de/fhir/core/modul-labor/StructureDefinition/ObservationLab" ]
      },
      "identifier": [ {
        "type": {
          "coding": [ {
            "system": "http://terminology.hl7.org/CodeSystem/v2-0203",
            "code": "OBI",
            "display": "Observation Instance Identifier"
          } ]
        },
        "system": "https://mein.krankenhaus.de/fhir/NamingSystem/observationId",
        "value": "ef2696082e53d595051b0b952b88f21703ee9c06d8b428d47b47b0f2399d44bc",
        "assigner": {
          "reference": "Organization/3a4f3433bce81181bad2d8e0b8fafccf7dc800bc06f29be73dcb38b750a48f9a"
        }
      } ],
      "status": "final",
      "category": [ {
        "coding": [ {
          "system": "http://terminology.hl7.org/CodeSystem/observation-category",
          "code": "laboratory",
          "display": "Laboratory"
        }, {
          "system": "http://loinc.org",
          "code": "26436-6"
        } ]
      } ],
      "code": {
        "coding": [ {
          "system": "http://loinc.org",
          "code": "2276-4",
          "display": "ferritin-in-serum-or-plasma"
        } ],
        "text": "ferritin"
      },
      "subject": {
        "reference": "Patient/388bf7d2cb8501bec8aec34b02c8ec24afd31a4b1d990748173f87fafcacb7e4"
      },
      "encounter": {
        "reference": "Encounter/d898144ecb5d517599f188a426ff42c53b3aeae6011f70d92012dcba0cb6877c"
      },
      "effectiveDateTime": "2020-05-10T08:17:00+00:00",
      "valueQuantity": {
        "value": 13.346230217743027,
        "unit": "ng/mL",
        "system": "http://unitsofmeasure.org",
        "code": "ng/mL"
      }
    },
    "request": {
      "method": "POST",
      "url": "Observation",
      "ifNoneExist": "identifier=https://mein.krankenhaus.de/fhir/NamingSystem/observationId|58003eeee60308b0deb258ade61f9b3b5ca86824666cfd2289309824d3126dbb"
    }
  }, {
    "fullUrl": "Observation/4ddcb46388acb36ee6683c10c7bf57861a563c8bf5f82a979838610aa674e544",
    "resource": {
      "resourceType": "Observation",
      "meta": {
        "profile": [ "https://www.medizininformatik-initiative.de/fhir/core/modul-labor/StructureDefinition/ObservationLab" ]
      },
      "identifier": [ {
        "type": {
          "coding": [ {
            "system": "http://terminology.hl7.org/CodeSystem/v2-0203",
            "code": "OBI",
            "display": "Observation Instance Identifier"
          } ]
        },
        "system": "https://mein.krankenhaus.de/fhir/NamingSystem/observationId",
        "value": "c956615447315c1da5b803ba38bfacd7c6c3d2229aba614a049b3d5717055764",
        "assigner": {
          "reference": "Organization/3a4f3433bce81181bad2d8e0b8fafccf7dc800bc06f29be73dcb38b750a48f9a"
        }
      } ],
      "status": "final",
      "category": [ {
        "coding": [ {
          "system": "http://terminology.hl7.org/CodeSystem/observation-category",
          "code": "laboratory",
          "display": "Laboratory"
        }, {
          "system": "http://loinc.org",
          "code": "26436-6"
        } ]
      } ],
      "code": {
        "coding": [ {
          "system": "http://loinc.org",
          "code": "14631-6",
          "display": "bilirubin.total-in-serum-or-plasma"
        } ],
        "text": "bilirubin"
      },
      "subject": {
        "reference": "Patient/388bf7d2cb8501bec8aec34b02c8ec24afd31a4b1d990748173f87fafcacb7e4"
      },
      "encounter": {
        "reference": "Encounter/d898144ecb5d517599f188a426ff42c53b3aeae6011f70d92012dcba0cb6877c"
      },
      "effectiveDateTime": "2020-05-10T08:17:00+00:00",
      "valueQuantity": {
        "value": 77.50380683693491,
        "unit": "umol/L",
        "system": "http://unitsofmeasure.org",
        "code": "umol/L"
      }
    },
    "request": {
      "method": "POST",
      "url": "Observation",
      "ifNoneExist": "identifier=https://mein.krankenhaus.de/fhir/NamingSystem/observationId|4ddcb46388acb36ee6683c10c7bf57861a563c8bf5f82a979838610aa674e544"
    }
  }, {
    "fullUrl": "Observation/2cc674ec21ad8a42e8053ef31a5e9e9eb63eadc2e98c76543abb0dd08ea05363",
    "resource": {
      "resourceType": "Observation",
      "meta": {
        "profile": [ "https://www.medizininformatik-initiative.de/fhir/core/modul-labor/StructureDefinition/ObservationLab" ]
      },
      "identifier": [ {
        "type": {
          "coding": [ {
            "system": "http://terminology.hl7.org/CodeSystem/v2-0203",
            "code": "OBI",
            "display": "Observation Instance Identifier"
          } ]
        },
        "system": "https://mein.krankenhaus.de/fhir/NamingSystem/observationId",
        "value": "2cb70b88e73c9e277ec48ee086f2c769c7d83ee886e2b1335ceed856a76a45de",
        "assigner": {
          "reference": "Organization/3a4f3433bce81181bad2d8e0b8fafccf7dc800bc06f29be73dcb38b750a48f9a"
        }
      } ],
      "status": "final",
      "category": [ {
        "coding": [ {
          "system": "http://terminology.hl7.org/CodeSystem/observation-category",
          "code": "laboratory",
          "display": "Laboratory"
        }, {
          "system": "http://loinc.org",
          "code": "26436-6"
        } ]
      } ],
      "code": {
        "coding": [ {
          "system": "http://loinc.org",
          "code": "48067-3",
          "display": "fibrin-d-dimer-feu-in-platelet-poor-plasma-by-immunoassay"
        } ],
        "text": "ddimer"
      },
      "subject": {
        "reference": "Patient/388bf7d2cb8501bec8aec34b02c8ec24afd31a4b1d990748173f87fafcacb7e4"
      },
      "encounter": {
        "reference": "Encounter/d898144ecb5d517599f188a426ff42c53b3aeae6011f70d92012dcba0cb6877c"
      },
      "effectiveDateTime": "2020-05-10T08:17:00+00:00",
      "valueQuantity": {
        "value": 0.46348268058427067,
        "unit": "ug/mL{FEU}",
        "system": "http://unitsofmeasure.org",
        "code": "ug/mL{FEU}"
      }
    },
    "request": {
      "method": "POST",
      "url": "Observation",
      "ifNoneExist": "identifier=https://mein.krankenhaus.de/fhir/NamingSystem/observationId|2cc674ec21ad8a42e8053ef31a5e9e9eb63eadc2e98c76543abb0dd08ea05363"
    }
  }, {
    "fullUrl": "Observation/95b16b2ac94fae2246b5fa52294b1757d9aa518c0f12620ad774a8a8b07486c6",
    "resource": {
      "resourceType": "Observation",
      "meta": {
        "profile": [ "https://www.medizininformatik-initiative.de/fhir/core/modul-labor/StructureDefinition/ObservationLab" ]
      },
      "identifier": [ {
        "type": {
          "coding": [ {
            "system": "http://terminology.hl7.org/CodeSystem/v2-0203",
            "code": "OBI",
            "display": "Observation Instance Identifier"
          } ]
        },
        "system": "https://mein.krankenhaus.de/fhir/NamingSystem/observationId",
        "value": "ae89690ee5a01109ed02f01d94e8b5cfa3a6587914f1ba5ddbf7f6e3b5313b2f",
        "assigner": {
          "reference": "Organization/3a4f3433bce81181bad2d8e0b8fafccf7dc800bc06f29be73dcb38b750a48f9a"
        }
      } ],
      "status": "final",
      "category": [ {
        "coding": [ {
          "system": "http://terminology.hl7.org/CodeSystem/observation-category",
          "code": "laboratory",
          "display": "Laboratory"
        }, {
          "system": "http://loinc.org",
          "code": "26436-6"
        } ]
      } ],
      "code": {
        "coding": [ {
          "system": "http://loinc.org",
          "code": "2325-9",
          "display": "gamma-glutamyl-transferase-aspartate-aminotransferase-in-serum-or-plasma"
        } ],
        "text": "gammagt"
      },
      "subject": {
        "reference": "Patient/388bf7d2cb8501bec8aec34b02c8ec24afd31a4b1d990748173f87fafcacb7e4"
      },
      "encounter": {
        "reference": "Encounter/d898144ecb5d517599f188a426ff42c53b3aeae6011f70d92012dcba0cb6877c"
      },
      "effectiveDateTime": "2020-05-10T08:17:00+00:00",
      "valueQuantity": {
        "value": 74.55072667331449,
        "unit": "U/L",
        "system": "http://unitsofmeasure.org",
        "code": "U/L"
      }
    },
    "request": {
      "method": "POST",
      "url": "Observation",
      "ifNoneExist": "identifier=https://mein.krankenhaus.de/fhir/NamingSystem/observationId|95b16b2ac94fae2246b5fa52294b1757d9aa518c0f12620ad774a8a8b07486c6"
    }
  }, {
    "fullUrl": "Observation/490de03a3d02860154e1868453fa5cc9b9b3b36fac8505772d47fdf4b6bb5410",
    "resource": {
      "resourceType": "Observation",
      "meta": {
        "profile": [ "https://www.medizininformatik-initiative.de/fhir/core/modul-labor/StructureDefinition/ObservationLab" ]
      },
      "identifier": [ {
        "type": {
          "coding": [ {
            "system": "http://terminology.hl7.org/CodeSystem/v2-0203",
            "code": "OBI",
            "display": "Observation Instance Identifier"
          } ]
        },
        "system": "https://mein.krankenhaus.de/fhir/NamingSystem/observationId",
        "value": "cd1e64e6b352721bbe906ace3cbfdd3664385cad3459964e57c51ec86625aa3a",
        "assigner": {
          "reference": "Organization/3a4f3433bce81181bad2d8e0b8fafccf7dc800bc06f29be73dcb38b750a48f9a"
        }
      } ],
      "status": "final",
      "category": [ {
        "coding": [ {
          "system": "http://terminology.hl7.org/CodeSystem/observation-category",
          "code": "laboratory",
          "display": "Laboratory"
        }, {
          "system": "http://loinc.org",
          "code": "26436-6"
        } ]
      } ],
      "code": {
        "coding": [ {
          "system": "http://loinc.org",
          "code": "1920-8",
          "display": "aspartate-aminotransferase-in-serum-or-plasma"
        } ],
        "text": "gotast"
      },
      "subject": {
        "reference": "Patient/388bf7d2cb8501bec8aec34b02c8ec24afd31a4b1d990748173f87fafcacb7e4"
      },
      "encounter": {
        "reference": "Encounter/d898144ecb5d517599f188a426ff42c53b3aeae6011f70d92012dcba0cb6877c"
      },
      "effectiveDateTime": "2020-05-10T08:17:00+00:00",
      "valueQuantity": {
        "value": 76.9035271955481,
        "unit": "U/L",
        "system": "http://unitsofmeasure.org",
        "code": "U/L"
      }
    },
    "request": {
      "method": "POST",
      "url": "Observation",
      "ifNoneExist": "identifier=https://mein.krankenhaus.de/fhir/NamingSystem/observationId|490de03a3d02860154e1868453fa5cc9b9b3b36fac8505772d47fdf4b6bb5410"
    }
  }, {
    "fullUrl": "Observation/bb90e330508a7c338a18b77a7d214db01822bdc1931d09bc696b727ff4a3ffdd",
    "resource": {
      "resourceType": "Observation",
      "meta": {
        "profile": [ "https://www.medizininformatik-initiative.de/fhir/core/modul-labor/StructureDefinition/ObservationLab" ]
      },
      "identifier": [ {
        "type": {
          "coding": [ {
            "system": "http://terminology.hl7.org/CodeSystem/v2-0203",
            "code": "OBI",
            "display": "Observation Instance Identifier"
          } ]
        },
        "system": "https://mein.krankenhaus.de/fhir/NamingSystem/observationId",
        "value": "d6d924f8171b2473bda093a70d00e150e40998d83133abbf8431655bcdabac25",
        "assigner": {
          "reference": "Organization/3a4f3433bce81181bad2d8e0b8fafccf7dc800bc06f29be73dcb38b750a48f9a"
        }
      } ],
      "status": "final",
      "category": [ {
        "coding": [ {
          "system": "http://terminology.hl7.org/CodeSystem/observation-category",
          "code": "laboratory",
          "display": "Laboratory"
        }, {
          "system": "http://loinc.org",
          "code": "26436-6"
        } ]
      } ],
      "code": {
        "coding": [ {
          "system": "http://loinc.org",
          "code": "14803-1",
          "display": "lactate-dehydrogenase-in-body-fluid-by-lactate-to-pyruvate-reaction"
        } ],
        "text": "ldh"
      },
      "subject": {
        "reference": "Patient/388bf7d2cb8501bec8aec34b02c8ec24afd31a4b1d990748173f87fafcacb7e4"
      },
      "encounter": {
        "reference": "Encounter/d898144ecb5d517599f188a426ff42c53b3aeae6011f70d92012dcba0cb6877c"
      },
      "effectiveDateTime": "2020-05-10T08:17:00+00:00",
      "valueQuantity": {
        "value": 9.854814134419076,
        "unit": "U/L",
        "system": "http://unitsofmeasure.org",
        "code": "U/L"
      }
    },
    "request": {
      "method": "POST",
      "url": "Observation",
      "ifNoneExist": "identifier=https://mein.krankenhaus.de/fhir/NamingSystem/observationId|bb90e330508a7c338a18b77a7d214db01822bdc1931d09bc696b727ff4a3ffdd"
    }
  }, {
    "fullUrl": "Observation/12507275754f285b3e3a9a1be7213ba89fdaeab22da5a8c790607b25ad5136ac",
    "resource": {
      "resourceType": "Observation",
      "meta": {
        "profile": [ "https://www.medizininformatik-initiative.de/fhir/core/modul-labor/StructureDefinition/ObservationLab" ]
      },
      "identifier": [ {
        "type": {
          "coding": [ {
            "system": "http://terminology.hl7.org/CodeSystem/v2-0203",
            "code": "OBI",
            "display": "Observation Instance Identifier"
          } ]
        },
        "system": "https://mein.krankenhaus.de/fhir/NamingSystem/observationId",
        "value": "59747dfd701088adef9df656d62f28361bdb04d8d0399cc61ce084eb26dc4327",
        "assigner": {
          "reference": "Organization/3a4f3433bce81181bad2d8e0b8fafccf7dc800bc06f29be73dcb38b750a48f9a"
        }
      } ],
      "status": "final",
      "category": [ {
        "coding": [ {
          "system": "http://terminology.hl7.org/CodeSystem/observation-category",
          "code": "laboratory",
          "display": "Laboratory"
        }, {
          "system": "http://loinc.org",
          "code": "26436-6"
        } ]
      } ],
      "code": {
        "coding": [ {
          "system": "http://loinc.org",
          "code": "6597-9",
          "display": "troponin-t.cardiac-in-venous-blood"
        } ],
        "text": "kardiale_troponine"
      },
      "subject": {
        "reference": "Patient/388bf7d2cb8501bec8aec34b02c8ec24afd31a4b1d990748173f87fafcacb7e4"
      },
      "encounter": {
        "reference": "Encounter/d898144ecb5d517599f188a426ff42c53b3aeae6011f70d92012dcba0cb6877c"
      },
      "effectiveDateTime": "2020-05-10T08:17:00+00:00",
      "valueQuantity": {
        "value": 47.10583934108683,
        "unit": "ng/mL",
        "system": "http://unitsofmeasure.org",
        "code": "ng/mL"
      }
    },
    "request": {
      "method": "POST",
      "url": "Observation",
      "ifNoneExist": "identifier=https://mein.krankenhaus.de/fhir/NamingSystem/observationId|12507275754f285b3e3a9a1be7213ba89fdaeab22da5a8c790607b25ad5136ac"
    }
  }, {
    "fullUrl": "Observation/e59408a6bd9069a36a4681d80daeeddbfec64e758a67ddc5ae8ff3fad762ae47",
    "resource": {
      "resourceType": "Observation",
      "meta": {
        "profile": [ "https://www.medizininformatik-initiative.de/fhir/core/modul-labor/StructureDefinition/ObservationLab" ]
      },
      "identifier": [ {
        "type": {
          "coding": [ {
            "system": "http://terminology.hl7.org/CodeSystem/v2-0203",
            "code": "OBI",
            "display": "Observation Instance Identifier"
          } ]
        },
        "system": "https://mein.krankenhaus.de/fhir/NamingSystem/observationId",
        "value": "3f6c7e549df2dabfffc59cc83664fdcc70c2eb7b680bb6e07822ab19199af43e",
        "assigner": {
          "reference": "Organization/3a4f3433bce81181bad2d8e0b8fafccf7dc800bc06f29be73dcb38b750a48f9a"
        }
      } ],
      "status": "final",
      "category": [ {
        "coding": [ {
          "system": "http://terminology.hl7.org/CodeSystem/observation-category",
          "code": "laboratory",
          "display": "Laboratory"
        }, {
          "system": "http://loinc.org",
          "code": "26436-6"
        } ]
      } ],
      "code": {
        "coding": [ {
          "system": "http://loinc.org",
          "code": "76769-9",
          "display": "hemoglobin-in-venous-blood-by-oximetry"
        } ],
        "text": "hamoglobin"
      },
      "subject": {
        "reference": "Patient/388bf7d2cb8501bec8aec34b02c8ec24afd31a4b1d990748173f87fafcacb7e4"
      },
      "encounter": {
        "reference": "Encounter/d898144ecb5d517599f188a426ff42c53b3aeae6011f70d92012dcba0cb6877c"
      },
      "effectiveDateTime": "2020-05-10T08:17:00+00:00",
      "valueQuantity": {
        "value": 84.89147459095102,
        "unit": "g/L",
        "system": "http://unitsofmeasure.org",
        "code": "g/L"
      }
    },
    "request": {
      "method": "POST",
      "url": "Observation",
      "ifNoneExist": "identifier=https://mein.krankenhaus.de/fhir/NamingSystem/observationId|e59408a6bd9069a36a4681d80daeeddbfec64e758a67ddc5ae8ff3fad762ae47"
    }
  }, {
    "fullUrl": "Observation/d5303fbd89da1c10cc9be855e12e18dac9838712d29b4aaa606553e378e201a5",
    "resource": {
      "resourceType": "Observation",
      "meta": {
        "profile": [ "https://www.medizininformatik-initiative.de/fhir/core/modul-labor/StructureDefinition/ObservationLab" ]
      },
      "identifier": [ {
        "type": {
          "coding": [ {
            "system": "http://terminology.hl7.org/CodeSystem/v2-0203",
            "code": "OBI",
            "display": "Observation Instance Identifier"
          } ]
        },
        "system": "https://mein.krankenhaus.de/fhir/NamingSystem/observationId",
        "value": "15fa3a11fbc58654a69dfdd71d7c4b9148d7ed3ac763d2c7e9c82725cfc3e6c3",
        "assigner": {
          "reference": "Organization/3a4f3433bce81181bad2d8e0b8fafccf7dc800bc06f29be73dcb38b750a48f9a"
        }
      } ],
      "status": "final",
      "category": [ {
        "coding": [ {
          "system": "http://terminology.hl7.org/CodeSystem/observation-category",
          "code": "laboratory",
          "display": "Laboratory"
        }, {
          "system": "http://loinc.org",
          "code": "26436-6"
        } ]
      } ],
      "code": {
        "coding": [ {
          "system": "http://loinc.org",
          "code": "59826-8",
          "display": "creatinine-in-blood"
        } ],
        "text": "kreatinin"
      },
      "subject": {
        "reference": "Patient/388bf7d2cb8501bec8aec34b02c8ec24afd31a4b1d990748173f87fafcacb7e4"
      },
      "encounter": {
        "reference": "Encounter/d898144ecb5d517599f188a426ff42c53b3aeae6011f70d92012dcba0cb6877c"
      },
      "effectiveDateTime": "2020-05-10T08:17:00+00:00",
      "valueQuantity": {
        "value": 78.49312410179122,
        "unit": "umol/L",
        "system": "http://unitsofmeasure.org",
        "code": "umol/L"
      }
    },
    "request": {
      "method": "POST",
      "url": "Observation",
      "ifNoneExist": "identifier=https://mein.krankenhaus.de/fhir/NamingSystem/observationId|d5303fbd89da1c10cc9be855e12e18dac9838712d29b4aaa606553e378e201a5"
    }
  }, {
    "fullUrl": "Observation/a8f37c252bea2138ddc9b13fd07c7c901a67c7010be3e05048c46b120ec95fff",
    "resource": {
      "resourceType": "Observation",
      "meta": {
        "profile": [ "https://www.medizininformatik-initiative.de/fhir/core/modul-labor/StructureDefinition/ObservationLab" ]
      },
      "identifier": [ {
        "type": {
          "coding": [ {
            "system": "http://terminology.hl7.org/CodeSystem/v2-0203",
            "code": "OBI",
            "display": "Observation Instance Identifier"
          } ]
        },
        "system": "https://mein.krankenhaus.de/fhir/NamingSystem/observationId",
        "value": "14d6da34c43ccb6572525c45895f7e8aad03a3e6ca669246177002cd7f197e2a",
        "assigner": {
          "reference": "Organization/3a4f3433bce81181bad2d8e0b8fafccf7dc800bc06f29be73dcb38b750a48f9a"
        }
      } ],
      "status": "final",
      "category": [ {
        "coding": [ {
          "system": "http://terminology.hl7.org/CodeSystem/observation-category",
          "code": "laboratory",
          "display": "Laboratory"
        }, {
          "system": "http://loinc.org",
          "code": "26436-6"
        } ]
      } ],
      "code": {
        "coding": [ {
          "system": "http://loinc.org",
          "code": "32693-4",
          "display": "lactate-in-blood"
        } ],
        "text": "laktat"
      },
      "subject": {
        "reference": "Patient/388bf7d2cb8501bec8aec34b02c8ec24afd31a4b1d990748173f87fafcacb7e4"
      },
      "encounter": {
        "reference": "Encounter/d898144ecb5d517599f188a426ff42c53b3aeae6011f70d92012dcba0cb6877c"
      },
      "effectiveDateTime": "2020-05-10T08:17:00+00:00",
      "valueQuantity": {
        "value": 11.999147337264116,
        "unit": "mmol/L",
        "system": "http://unitsofmeasure.org",
        "code": "mmol/L"
      }
    },
    "request": {
      "method": "POST",
      "url": "Observation",
      "ifNoneExist": "identifier=https://mein.krankenhaus.de/fhir/NamingSystem/observationId|a8f37c252bea2138ddc9b13fd07c7c901a67c7010be3e05048c46b120ec95fff"
    }
  }, {
    "fullUrl": "Observation/f304ff9e8b982e8825881812ce7a2cfce27878eb6b30e919edc7d572e99e1d30",
    "resource": {
      "resourceType": "Observation",
      "meta": {
        "profile": [ "https://www.medizininformatik-initiative.de/fhir/core/modul-labor/StructureDefinition/ObservationLab" ]
      },
      "identifier": [ {
        "type": {
          "coding": [ {
            "system": "http://terminology.hl7.org/CodeSystem/v2-0203",
            "code": "OBI",
            "display": "Observation Instance Identifier"
          } ]
        },
        "system": "https://mein.krankenhaus.de/fhir/NamingSystem/observationId",
        "value": "7947c648cceb05c391f3e4be65e8a5e18c4d33290d6056a6b2242164f684dca4",
        "assigner": {
          "reference": "Organization/3a4f3433bce81181bad2d8e0b8fafccf7dc800bc06f29be73dcb38b750a48f9a"
        }
      } ],
      "status": "final",
      "category": [ {
        "coding": [ {
          "system": "http://terminology.hl7.org/CodeSystem/observation-category",
          "code": "laboratory",
          "display": "Laboratory"
        }, {
          "system": "http://loinc.org",
          "code": "26436-6"
        } ]
      } ],
      "code": {
        "coding": [ {
          "system": "http://loinc.org",
          "code": "26464-8",
          "display": "leukocytes-in-blood"
        } ],
        "text": "leukozyten_absolut"
      },
      "subject": {
        "reference": "Patient/388bf7d2cb8501bec8aec34b02c8ec24afd31a4b1d990748173f87fafcacb7e4"
      },
      "encounter": {
        "reference": "Encounter/d898144ecb5d517599f188a426ff42c53b3aeae6011f70d92012dcba0cb6877c"
      },
      "effectiveDateTime": "2020-05-10T08:17:00+00:00",
      "valueQuantity": {
        "value": 8.660589507139116,
        "unit": "10*3/uL",
        "system": "http://unitsofmeasure.org",
        "code": "10*3/uL"
      }
    },
    "request": {
      "method": "POST",
      "url": "Observation",
      "ifNoneExist": "identifier=https://mein.krankenhaus.de/fhir/NamingSystem/observationId|f304ff9e8b982e8825881812ce7a2cfce27878eb6b30e919edc7d572e99e1d30"
    }
  }, {
    "fullUrl": "Observation/2be646358428d8a820e51f752037c0d18e4f464f2ed7ddb0e441c0ae04ae76fa",
    "resource": {
      "resourceType": "Observation",
      "meta": {
        "profile": [ "https://www.medizininformatik-initiative.de/fhir/core/modul-labor/StructureDefinition/ObservationLab" ]
      },
      "identifier": [ {
        "type": {
          "coding": [ {
            "system": "http://terminology.hl7.org/CodeSystem/v2-0203",
            "code": "OBI",
            "display": "Observation Instance Identifier"
          } ]
        },
        "system": "https://mein.krankenhaus.de/fhir/NamingSystem/observationId",
        "value": "5215dbf5634aac776e8046b9f9524a7439cde4c2385eafcddc52e7b37d0226af",
        "assigner": {
          "reference": "Organization/3a4f3433bce81181bad2d8e0b8fafccf7dc800bc06f29be73dcb38b750a48f9a"
        }
      } ],
      "status": "final",
      "category": [ {
        "coding": [ {
          "system": "http://terminology.hl7.org/CodeSystem/observation-category",
          "code": "laboratory",
          "display": "Laboratory"
        }, {
          "system": "http://loinc.org",
          "code": "26436-6"
        } ]
      } ],
      "code": {
        "coding": [ {
          "system": "http://loinc.org",
          "code": "732-8",
          "display": "lymphocytes-in-blood-by-manual-count"
        } ],
        "text": "lymphozyten_absolut"
      },
      "subject": {
        "reference": "Patient/388bf7d2cb8501bec8aec34b02c8ec24afd31a4b1d990748173f87fafcacb7e4"
      },
      "encounter": {
        "reference": "Encounter/d898144ecb5d517599f188a426ff42c53b3aeae6011f70d92012dcba0cb6877c"
      },
      "effectiveDateTime": "2020-05-10T08:17:00+00:00",
      "valueQuantity": {
        "value": 52.18004041841433,
        "unit": "10*3/uL",
        "system": "http://unitsofmeasure.org",
        "code": "10*3/uL"
      }
    },
    "request": {
      "method": "POST",
      "url": "Observation",
      "ifNoneExist": "identifier=https://mein.krankenhaus.de/fhir/NamingSystem/observationId|2be646358428d8a820e51f752037c0d18e4f464f2ed7ddb0e441c0ae04ae76fa"
    }
  }, {
    "fullUrl": "Observation/d70fa305e9cee2c4bc5345a689e54c9269b30de91b94392fc3852de148063f00",
    "resource": {
      "resourceType": "Observation",
      "meta": {
        "profile": [ "https://www.medizininformatik-initiative.de/fhir/core/modul-labor/StructureDefinition/ObservationLab" ]
      },
      "identifier": [ {
        "type": {
          "coding": [ {
            "system": "http://terminology.hl7.org/CodeSystem/v2-0203",
            "code": "OBI",
            "display": "Observation Instance Identifier"
          } ]
        },
        "system": "https://mein.krankenhaus.de/fhir/NamingSystem/observationId",
        "value": "e99f03b3f17f229be1bd67e6bc90718dd74e9dd294bcc7f9b01d1b645a70275a",
        "assigner": {
          "reference": "Organization/3a4f3433bce81181bad2d8e0b8fafccf7dc800bc06f29be73dcb38b750a48f9a"
        }
      } ],
      "status": "final",
      "category": [ {
        "coding": [ {
          "system": "http://terminology.hl7.org/CodeSystem/observation-category",
          "code": "laboratory",
          "display": "Laboratory"
        }, {
          "system": "http://loinc.org",
          "code": "26436-6"
        } ]
      } ],
      "code": {
        "coding": [ {
          "system": "http://loinc.org",
          "code": "26499-4",
          "display": "neutrophils-in-blood"
        } ],
        "text": "neutrophile_absolut"
      },
      "subject": {
        "reference": "Patient/388bf7d2cb8501bec8aec34b02c8ec24afd31a4b1d990748173f87fafcacb7e4"
      },
      "encounter": {
        "reference": "Encounter/d898144ecb5d517599f188a426ff42c53b3aeae6011f70d92012dcba0cb6877c"
      },
      "effectiveDateTime": "2020-05-10T08:17:00+00:00",
      "valueQuantity": {
        "value": 54.92166665577193,
        "unit": "10*3/uL",
        "system": "http://unitsofmeasure.org",
        "code": "10*3/uL"
      }
    },
    "request": {
      "method": "POST",
      "url": "Observation",
      "ifNoneExist": "identifier=https://mein.krankenhaus.de/fhir/NamingSystem/observationId|d70fa305e9cee2c4bc5345a689e54c9269b30de91b94392fc3852de148063f00"
    }
  }, {
    "fullUrl": "Observation/b251fb18b4eeaf893d8a541d19bf5ac73e88aa2e34eb4041d5e061b3809850f5",
    "resource": {
      "resourceType": "Observation",
      "meta": {
        "profile": [ "https://www.medizininformatik-initiative.de/fhir/core/modul-labor/StructureDefinition/ObservationLab" ]
      },
      "identifier": [ {
        "type": {
          "coding": [ {
            "system": "http://terminology.hl7.org/CodeSystem/v2-0203",
            "code": "OBI",
            "display": "Observation Instance Identifier"
          } ]
        },
        "system": "https://mein.krankenhaus.de/fhir/NamingSystem/observationId",
        "value": "c59532e9aeb9feffc67d7671ae5202694126b92817c1ad88d90178300a3bc628",
        "assigner": {
          "reference": "Organization/3a4f3433bce81181bad2d8e0b8fafccf7dc800bc06f29be73dcb38b750a48f9a"
        }
      } ],
      "status": "final",
      "category": [ {
        "coding": [ {
          "system": "http://terminology.hl7.org/CodeSystem/observation-category",
          "code": "laboratory",
          "display": "Laboratory"
        }, {
          "system": "http://loinc.org",
          "code": "26436-6"
        } ]
      } ],
      "code": {
        "coding": [ {
          "system": "http://loinc.org",
          "code": "49497-1",
          "display": "platelets-in-blood-by-estimate"
        } ],
        "text": "thrombozyten_absolut"
      },
      "subject": {
        "reference": "Patient/388bf7d2cb8501bec8aec34b02c8ec24afd31a4b1d990748173f87fafcacb7e4"
      },
      "encounter": {
        "reference": "Encounter/d898144ecb5d517599f188a426ff42c53b3aeae6011f70d92012dcba0cb6877c"
      },
      "effectiveDateTime": "2020-05-10T08:17:00+00:00",
      "valueQuantity": {
        "value": 4.069158926175087,
        "unit": "10*3/uL",
        "system": "http://unitsofmeasure.org",
        "code": "10*3/uL"
      }
    },
    "request": {
      "method": "POST",
      "url": "Observation",
      "ifNoneExist": "identifier=https://mein.krankenhaus.de/fhir/NamingSystem/observationId|b251fb18b4eeaf893d8a541d19bf5ac73e88aa2e34eb4041d5e061b3809850f5"
    }
  }, {
    "fullUrl": "Observation/97d90a1f81e85f4dac655b7b3f1f147488d252f21ec32917e1087e4bc2eecaa7",
    "resource": {
      "resourceType": "Observation",
      "meta": {
        "profile": [ "https://www.medizininformatik-initiative.de/fhir/core/modul-labor/StructureDefinition/ObservationLab" ]
      },
      "identifier": [ {
        "type": {
          "coding": [ {
            "system": "http://terminology.hl7.org/CodeSystem/v2-0203",
            "code": "OBI",
            "display": "Observation Instance Identifier"
          } ]
        },
        "system": "https://mein.krankenhaus.de/fhir/NamingSystem/observationId",
        "value": "4d94d4a5ad4c6befc25941cee85dc1a6468a56662cb049abd00a332a6f7472c8",
        "assigner": {
          "reference": "Organization/3a4f3433bce81181bad2d8e0b8fafccf7dc800bc06f29be73dcb38b750a48f9a"
        }
      } ],
      "status": "final",
      "category": [ {
        "coding": [ {
          "system": "http://terminology.hl7.org/CodeSystem/observation-category",
          "code": "laboratory",
          "display": "Laboratory"
        }, {
          "system": "http://loinc.org",
          "code": "26436-6"
        } ]
      } ],
      "code": {
        "coding": [ {
          "system": "http://loinc.org",
          "code": "46418-0",
          "display": "inr-in-capillary-blood-by-coagulation-assay"
        } ],
        "text": "inr"
      },
      "subject": {
        "reference": "Patient/388bf7d2cb8501bec8aec34b02c8ec24afd31a4b1d990748173f87fafcacb7e4"
      },
      "encounter": {
        "reference": "Encounter/d898144ecb5d517599f188a426ff42c53b3aeae6011f70d92012dcba0cb6877c"
      },
      "effectiveDateTime": "2020-05-10T08:17:00+00:00",
      "valueQuantity": {
        "value": 54.58441963011289,
        "unit": "{INR}",
        "system": "http://unitsofmeasure.org",
        "code": "{INR}"
      }
    },
    "request": {
      "method": "POST",
      "url": "Observation",
      "ifNoneExist": "identifier=https://mein.krankenhaus.de/fhir/NamingSystem/observationId|97d90a1f81e85f4dac655b7b3f1f147488d252f21ec32917e1087e4bc2eecaa7"
    }
  }, {
    "fullUrl": "Observation/f57218b4e636a5fb0d59c85dcf92ae7a9602197481abff294420814c019586d7",
    "resource": {
      "resourceType": "Observation",
      "meta": {
        "profile": [ "https://www.medizininformatik-initiative.de/fhir/core/modul-labor/StructureDefinition/ObservationLab" ]
      },
      "identifier": [ {
        "type": {
          "coding": [ {
            "system": "http://terminology.hl7.org/CodeSystem/v2-0203",
            "code": "OBI",
            "display": "Observation Instance Identifier"
          } ]
        },
        "system": "https://mein.krankenhaus.de/fhir/NamingSystem/observationId",
        "value": "bc21236bd1f6d33abdd7bf2399b515b5f1cc75db2c951182206e4931ac758226",
        "assigner": {
          "reference": "Organization/3a4f3433bce81181bad2d8e0b8fafccf7dc800bc06f29be73dcb38b750a48f9a"
        }
      } ],
      "status": "final",
      "category": [ {
        "coding": [ {
          "system": "http://terminology.hl7.org/CodeSystem/observation-category",
          "code": "laboratory",
          "display": "Laboratory"
        }, {
          "system": "http://loinc.org",
          "code": "26436-6"
        } ]
      } ],
      "code": {
        "coding": [ {
          "system": "http://loinc.org",
          "code": "76631-1"
        }, {
          "system": "http://loinc.org",
          "code": "62235-7"
        }, {
          "system": "http://loinc.org",
          "code": "62234-0"
        }, {
          "system": "http://loinc.org",
          "code": "61152-5"
        }, {
          "system": "http://loinc.org",
          "code": "61151-7"
        }, {
          "system": "http://loinc.org",
          "code": "2862-1"
        }, {
          "system": "http://loinc.org",
          "code": "1751-7"
        }, {
          "system": "http://loinc.org",
          "code": "54347-0"
        } ],
        "text": "serumalbumin"
      },
      "subject": {
        "reference": "Patient/388bf7d2cb8501bec8aec34b02c8ec24afd31a4b1d990748173f87fafcacb7e4"
      },
      "encounter": {
        "reference": "Encounter/d898144ecb5d517599f188a426ff42c53b3aeae6011f70d92012dcba0cb6877c"
      },
      "effectiveDateTime": "2020-05-10T08:17:00+00:00",
      "valueQuantity": {
        "value": 92.20958111673666,
        "unit": "g/dL",
        "system": "http://unitsofmeasure.org",
        "code": "g/dL"
      }
    },
    "request": {
      "method": "POST",
      "url": "Observation",
      "ifNoneExist": "identifier=https://mein.krankenhaus.de/fhir/NamingSystem/observationId|f57218b4e636a5fb0d59c85dcf92ae7a9602197481abff294420814c019586d7"
    }
  }, {
    "fullUrl": "Observation/6fabc91ef4f944ed5264f05fb48cd8e32170cc70966e467693f8eede28567b20",
    "resource": {
      "resourceType": "Observation",
      "meta": {
        "profile": [ "https://www.medizininformatik-initiative.de/fhir/core/modul-labor/StructureDefinition/ObservationLab" ]
      },
      "identifier": [ {
        "type": {
          "coding": [ {
            "system": "http://terminology.hl7.org/CodeSystem/v2-0203",
            "code": "OBI",
            "display": "Observation Instance Identifier"
          } ]
        },
        "system": "https://mein.krankenhaus.de/fhir/NamingSystem/observationId",
        "value": "db400205f60b155ed78b0d68beb2b795dc93c16340e63994b25ecc9ff0828d1c",
        "assigner": {
          "reference": "Organization/3a4f3433bce81181bad2d8e0b8fafccf7dc800bc06f29be73dcb38b750a48f9a"
        }
      } ],
      "status": "final",
      "category": [ {
        "coding": [ {
          "system": "http://terminology.hl7.org/CodeSystem/observation-category",
          "code": "laboratory",
          "display": "Laboratory"
        }, {
          "system": "http://loinc.org",
          "code": "26436-6"
        } ]
      } ],
      "code": {
        "coding": [ {
          "system": "http://loinc.org",
          "code": "3174-0",
          "display": "antithrombin-in-platelet-poor-plasma-by-chromogenic-method"
        } ],
        "text": "antithrombin_iii"
      },
      "subject": {
        "reference": "Patient/388bf7d2cb8501bec8aec34b02c8ec24afd31a4b1d990748173f87fafcacb7e4"
      },
      "encounter": {
        "reference": "Encounter/d898144ecb5d517599f188a426ff42c53b3aeae6011f70d92012dcba0cb6877c"
      },
      "effectiveDateTime": "2020-05-10T08:17:00+00:00",
      "valueQuantity": {
        "value": 12.693931291149186,
        "unit": "[IU]/mL",
        "system": "http://unitsofmeasure.org",
        "code": "[IU]/mL"
      }
    },
    "request": {
      "method": "POST",
      "url": "Observation",
      "ifNoneExist": "identifier=https://mein.krankenhaus.de/fhir/NamingSystem/observationId|6fabc91ef4f944ed5264f05fb48cd8e32170cc70966e467693f8eede28567b20"
    }
  }, {
    "fullUrl": "Observation/5b85f15710a15d83cef79690e0e1f081185f95cc8f73f0fcd83f43bab5030ee6",
    "resource": {
      "resourceType": "Observation",
      "meta": {
        "profile": [ "https://www.medizininformatik-initiative.de/fhir/core/modul-labor/StructureDefinition/ObservationLab" ]
      },
      "identifier": [ {
        "type": {
          "coding": [ {
            "system": "http://terminology.hl7.org/CodeSystem/v2-0203",
            "code": "OBI",
            "display": "Observation Instance Identifier"
          } ]
        },
        "system": "https://mein.krankenhaus.de/fhir/NamingSystem/observationId",
        "value": "4719f98ea49322fdda9f49efb9a902ccf197ebe3a7a8543cc052f61099f717b2",
        "assigner": {
          "reference": "Organization/3a4f3433bce81181bad2d8e0b8fafccf7dc800bc06f29be73dcb38b750a48f9a"
        }
      } ],
      "status": "final",
      "category": [ {
        "coding": [ {
          "system": "http://terminology.hl7.org/CodeSystem/observation-category",
          "code": "laboratory",
          "display": "Laboratory"
        }, {
          "system": "http://loinc.org",
          "code": "26436-6"
        } ]
      } ],
      "code": {
        "coding": [ {
          "system": "http://loinc.org",
          "code": "75241-0",
          "display": "procalcitonin-in-serum-or-plasma-by-immunoassay"
        } ],
        "text": "pct_procalcitonin"
      },
      "subject": {
        "reference": "Patient/388bf7d2cb8501bec8aec34b02c8ec24afd31a4b1d990748173f87fafcacb7e4"
      },
      "encounter": {
        "reference": "Encounter/d898144ecb5d517599f188a426ff42c53b3aeae6011f70d92012dcba0cb6877c"
      },
      "effectiveDateTime": "2020-05-10T08:17:00+00:00",
      "valueQuantity": {
        "value": 76.91329670173323,
        "unit": "ng/mL",
        "system": "http://unitsofmeasure.org",
        "code": "ng/mL"
      }
    },
    "request": {
      "method": "POST",
      "url": "Observation",
      "ifNoneExist": "identifier=https://mein.krankenhaus.de/fhir/NamingSystem/observationId|5b85f15710a15d83cef79690e0e1f081185f95cc8f73f0fcd83f43bab5030ee6"
    }
  }, {
    "fullUrl": "Observation/4bb21f07dd866106f4f2de4a7b0837e8ac536de53dce15980f95fa5d06e0d906",
    "resource": {
      "resourceType": "Observation",
      "meta": {
        "profile": [ "https://www.medizininformatik-initiative.de/fhir/core/modul-labor/StructureDefinition/ObservationLab" ]
      },
      "identifier": [ {
        "type": {
          "coding": [ {
            "system": "http://terminology.hl7.org/CodeSystem/v2-0203",
            "code": "OBI",
            "display": "Observation Instance Identifier"
          } ]
        },
        "system": "https://mein.krankenhaus.de/fhir/NamingSystem/observationId",
        "value": "61b76bb6d8ef82e362d002b5017f23ba8200e853985cf07e04a26306b7c496f5",
        "assigner": {
          "reference": "Organization/3a4f3433bce81181bad2d8e0b8fafccf7dc800bc06f29be73dcb38b750a48f9a"
        }
      } ],
      "status": "final",
      "category": [ {
        "coding": [ {
          "system": "http://terminology.hl7.org/CodeSystem/observation-category",
          "code": "laboratory",
          "display": "Laboratory"
        }, {
          "system": "http://loinc.org",
          "code": "26436-6"
        } ]
      } ],
      "code": {
        "coding": [ {
          "system": "http://loinc.org",
          "code": "49919-4",
          "display": "interleukin-6-in-cerebral-spinal-fluid"
        } ],
        "text": "il6_interleukin_6"
      },
      "subject": {
        "reference": "Patient/388bf7d2cb8501bec8aec34b02c8ec24afd31a4b1d990748173f87fafcacb7e4"
      },
      "encounter": {
        "reference": "Encounter/d898144ecb5d517599f188a426ff42c53b3aeae6011f70d92012dcba0cb6877c"
      },
      "effectiveDateTime": "2020-05-10T08:17:00+00:00",
      "valueQuantity": {
        "value": 14.535017374000859,
        "unit": "pg/mL",
        "system": "http://unitsofmeasure.org",
        "code": "pg/mL"
      }
    },
    "request": {
      "method": "POST",
      "url": "Observation",
      "ifNoneExist": "identifier=https://mein.krankenhaus.de/fhir/NamingSystem/observationId|4bb21f07dd866106f4f2de4a7b0837e8ac536de53dce15980f95fa5d06e0d906"
    }
  }, {
    "fullUrl": "Observation/3cc5a8181b3563c887d21ee59a5e942f4c1f0f328bda19759ae039d64e5fd167",
    "resource": {
      "resourceType": "Observation",
      "meta": {
        "profile": [ "https://www.medizininformatik-initiative.de/fhir/core/modul-labor/StructureDefinition/ObservationLab" ]
      },
      "identifier": [ {
        "type": {
          "coding": [ {
            "system": "http://terminology.hl7.org/CodeSystem/v2-0203",
            "code": "OBI",
            "display": "Observation Instance Identifier"
          } ]
        },
        "system": "https://mein.krankenhaus.de/fhir/NamingSystem/observationId",
        "value": "83aeef1e52c8c6b6a4e5088a2915130751ab45adbfce09ad8ba422a6d6b7dc57",
        "assigner": {
          "reference": "Organization/3a4f3433bce81181bad2d8e0b8fafccf7dc800bc06f29be73dcb38b750a48f9a"
        }
      } ],
      "status": "final",
      "category": [ {
        "coding": [ {
          "system": "http://terminology.hl7.org/CodeSystem/observation-category",
          "code": "laboratory",
          "display": "Laboratory"
        }, {
          "system": "http://loinc.org",
          "code": "26436-6"
        } ]
      } ],
      "code": {
        "coding": [ {
          "system": "http://loinc.org",
          "code": "83107-3",
          "display": "natriuretic-peptide.b-prohormone-n-terminal-in-serum-or-plasma-by-immunoassay"
        } ],
        "text": "ntprobnp"
      },
      "subject": {
        "reference": "Patient/388bf7d2cb8501bec8aec34b02c8ec24afd31a4b1d990748173f87fafcacb7e4"
      },
      "encounter": {
        "reference": "Encounter/d898144ecb5d517599f188a426ff42c53b3aeae6011f70d92012dcba0cb6877c"
      },
      "effectiveDateTime": "2020-05-10T08:17:00+00:00",
      "valueQuantity": {
        "value": 73.72462922046597,
        "unit": "pg/mL",
        "system": "http://unitsofmeasure.org",
        "code": "pg/mL"
      }
    },
    "request": {
      "method": "POST",
      "url": "Observation",
      "ifNoneExist": "identifier=https://mein.krankenhaus.de/fhir/NamingSystem/observationId|3cc5a8181b3563c887d21ee59a5e942f4c1f0f328bda19759ae039d64e5fd167"
    }
  }, {
    "fullUrl": "Observation/f31e4a5c7e0ddde0a0d919b381e87a4321631c922ea594025aaa4caef0c0be77",
    "resource": {
      "resourceType": "Observation",
      "meta": {
        "profile": [ "https://www.medizininformatik-initiative.de/fhir/core/modul-labor/StructureDefinition/ObservationLab" ]
      },
      "identifier": [ {
        "type": {
          "coding": [ {
            "system": "http://terminology.hl7.org/CodeSystem/v2-0203",
            "code": "OBI",
            "display": "Observation Instance Identifier"
          } ]
        },
        "system": "https://mein.krankenhaus.de/fhir/NamingSystem/observationId",
        "value": "1c33d9511fb3ceab0e5f533ce3834e8dd6c78b15a2696926e66d151ae60a0d3c",
        "assigner": {
          "reference": "Organization/3a4f3433bce81181bad2d8e0b8fafccf7dc800bc06f29be73dcb38b750a48f9a"
        }
      } ],
      "status": "final",
      "category": [ {
        "coding": [ {
          "system": "http://terminology.hl7.org/CodeSystem/observation-category",
          "code": "laboratory",
          "display": "Laboratory"
        }, {
          "system": "http://loinc.org",
          "code": "26436-6"
        } ]
      } ],
      "code": {
        "coding": [ {
          "system": "http://loinc.org",
          "code": "30902-1",
          "display": "fibrinogen-in-platelet-poor-plasma-by-heat-denaturation"
        } ],
        "text": "fibrinogen"
      },
      "subject": {
        "reference": "Patient/388bf7d2cb8501bec8aec34b02c8ec24afd31a4b1d990748173f87fafcacb7e4"
      },
      "encounter": {
        "reference": "Encounter/d898144ecb5d517599f188a426ff42c53b3aeae6011f70d92012dcba0cb6877c"
      },
      "effectiveDateTime": "2020-05-10T08:17:00+00:00",
      "valueQuantity": {
        "value": 25.976083298076492,
        "unit": "mg/dL",
        "system": "http://unitsofmeasure.org",
        "code": "mg/dL"
      }
    },
    "request": {
      "method": "POST",
      "url": "Observation",
      "ifNoneExist": "identifier=https://mein.krankenhaus.de/fhir/NamingSystem/observationId|f31e4a5c7e0ddde0a0d919b381e87a4321631c922ea594025aaa4caef0c0be77"
    }
  }, {
    "fullUrl": "Observation/e4c49104d7d96494c68fa4325f07d2c9f2c875f8d636a4a2b29433ebdcbad534",
    "resource": {
      "resourceType": "Observation",
      "meta": {
        "profile": [ "https://www.netzwerk-universitaetsmedizin.de/fhir/StructureDefinition/sars-cov-2-rt-pcr" ]
      },
      "identifier": [ {
        "type": {
          "coding": [ {
            "system": "http://terminology.hl7.org/CodeSystem/v2-0203",
            "code": "OBI",
            "display": "Observation Instance Identifier"
          } ]
        },
        "system": "https://mein.krankenhaus.de/fhir/NamingSystem/observationId",
        "value": "cf670eff94498f7a6edfedf7307dd8327734abaf4226baf14344b44d1d1b389d",
        "assigner": {
          "reference": "Organization/3a4f3433bce81181bad2d8e0b8fafccf7dc800bc06f29be73dcb38b750a48f9a"
        }
      } ],
      "status": "final",
      "category": [ {
        "coding": [ {
          "system": "http://terminology.hl7.org/CodeSystem/observation-category",
          "code": "laboratory",
          "display": "Laboratory"
        }, {
          "system": "http://loinc.org",
          "code": "26436-6"
        } ]
      } ],
      "code": {
        "coding": [ {
          "system": "http://loinc.org",
          "code": "94500-6",
          "display": "sars-cov-2-covid-19-rna-in-respiratory-specimen-by-naa-with-probe-detection"
        } ],
        "text": "SARS-CoV-2-RNA (PCR)"
      },
      "subject": {
        "reference": "Patient/388bf7d2cb8501bec8aec34b02c8ec24afd31a4b1d990748173f87fafcacb7e4"
      },
      "encounter": {
        "reference": "Encounter/d898144ecb5d517599f188a426ff42c53b3aeae6011f70d92012dcba0cb6877c"
      },
      "effectiveDateTime": "2020-05-10T08:17:00+00:00",
      "valueCodeableConcept": {
        "coding": [ {
          "system": "http://snomed.info/sct",
          "code": "260373001",
          "display": "Detected (qualifier value)"
        } ],
        "text": "SARS-CoV-2-RNA positiv"
      }
    },
    "request": {
      "method": "POST",
      "url": "Observation",
      "ifNoneExist": "identifier=https://mein.krankenhaus.de/fhir/NamingSystem/observationId|e4c49104d7d96494c68fa4325f07d2c9f2c875f8d636a4a2b29433ebdcbad534"
    }
  }, {
    "fullUrl": "Observation/9bf6d3242773636eb0920d6963bc0bae4c83d3603ebf2744f2b44a86c6db1f9d",
    "resource": {
      "resourceType": "Observation",
      "meta": {
        "profile": [ "https://www.netzwerk-universitaetsmedizin.de/fhir/StructureDefinition/sars-cov-2-ab-pnl-ser-pl-ia" ]
      },
      "identifier": [ {
        "type": {
          "coding": [ {
            "system": "http://terminology.hl7.org/CodeSystem/v2-0203",
            "code": "OBI",
            "display": "Observation Instance Identifier"
          } ]
        },
        "system": "https://mein.krankenhaus.de/fhir/NamingSystem/observationId",
        "value": "3660fa34f1052c9da00f0ae6f77e3084628443f8daa0e95edaca6d1fd8db0b28",
        "assigner": {
          "reference": "Organization/3a4f3433bce81181bad2d8e0b8fafccf7dc800bc06f29be73dcb38b750a48f9a"
        }
      } ],
      "status": "final",
      "category": [ {
        "coding": [ {
          "system": "http://terminology.hl7.org/CodeSystem/observation-category",
          "code": "laboratory",
          "display": "Laboratory"
        }, {
          "system": "http://loinc.org",
          "code": "26436-6"
        } ]
      } ],
      "code": {
        "coding": [ {
          "system": "http://loinc.org",
          "code": "94504-8"
        } ],
        "text": "sarsco_v2_covid19_ab_pnl"
      },
      "subject": {
        "reference": "Patient/388bf7d2cb8501bec8aec34b02c8ec24afd31a4b1d990748173f87fafcacb7e4"
      },
      "encounter": {
        "reference": "Encounter/d898144ecb5d517599f188a426ff42c53b3aeae6011f70d92012dcba0cb6877c"
      },
      "effectiveDateTime": "2020-05-10T08:17:00+00:00",
      "hasMember": [ {
        "reference": "Observation/7de482fbe6796ce43b85708dc32e096d697d116388f1498f1d5bb4f16a78b771"
      }, {
        "reference": "Observation/abdd0dc3c9e85a82abc9c882e086870c0e7f15893ac648d94ea58572ff2277b2"
      }, {
        "reference": "Observation/18d02636404bc2dfaffb6502f96c01d550cd81d82611730c41b6974610511489"
      }, {
        "reference": "Observation/8efdf02ae9d404fd44e70301ed0e3d1f1c9d6d789d31c1c7f996aa6d2d4ba777"
      }, {
        "reference": "Observation/d2a5f04d9a0f3a097ea4a448aa4f8fa49b122166bc4003be545a5b34cc33cef7"
      }, {
        "reference": "Observation/3f7117b3bfa617fc3213077f6abc95afffd4e4af66991ef0afd32444fcc5f860"
      }, {
        "reference": "Observation/3fac71107a16b4839cc437fe6f089dc24f00face8509c6fae5fb915bc47c7fb1"
      }, {
        "reference": "Observation/43187d40c1cf6b74a87af75f7965f23374ff4cf4c18b0ab90c3b7c61334da68d"
      } ]
    },
    "request": {
      "method": "POST",
      "url": "Observation",
      "ifNoneExist": "identifier=https://mein.krankenhaus.de/fhir/NamingSystem/observationId|9bf6d3242773636eb0920d6963bc0bae4c83d3603ebf2744f2b44a86c6db1f9d"
    }
  }, {
    "fullUrl": "Observation/7de482fbe6796ce43b85708dc32e096d697d116388f1498f1d5bb4f16a78b771",
    "resource": {
      "resourceType": "Observation",
      "meta": {
        "profile": [ "https://www.netzwerk-universitaetsmedizin.de/fhir/StructureDefinition/sars-cov-2-ab-ser-pl-ql-ia" ]
      },
      "identifier": [ {
        "type": {
          "coding": [ {
            "system": "http://terminology.hl7.org/CodeSystem/v2-0203",
            "code": "OBI",
            "display": "Observation Instance Identifier"
          } ]
        },
        "system": "https://mein.krankenhaus.de/fhir/NamingSystem/observationId",
        "value": "1a89e9129f5826948aeca6ba5d1304335faf10d01622af3109083ed97ec0374b",
        "assigner": {
          "reference": "Organization/3a4f3433bce81181bad2d8e0b8fafccf7dc800bc06f29be73dcb38b750a48f9a"
        }
      } ],
      "status": "final",
      "category": [ {
        "coding": [ {
          "system": "http://terminology.hl7.org/CodeSystem/observation-category",
          "code": "laboratory",
          "display": "Laboratory"
        }, {
          "system": "http://loinc.org",
          "code": "26436-6"
        } ]
      } ],
      "code": {
        "coding": [ {
          "system": "http://loinc.org",
          "code": "94762-2",
          "display": "sars-cov-2-covid-19-ab-in-serum-or-plasma-by-immunoassay"
        } ],
        "text": "sarsco_v2_covid19_ab_ia_ql"
      },
      "subject": {
        "reference": "Patient/388bf7d2cb8501bec8aec34b02c8ec24afd31a4b1d990748173f87fafcacb7e4"
      },
      "encounter": {
        "reference": "Encounter/d898144ecb5d517599f188a426ff42c53b3aeae6011f70d92012dcba0cb6877c"
      },
      "effectiveDateTime": "2020-05-10T08:17:00+00:00",
      "valueCodeableConcept": {
        "coding": [ {
          "system": "http://snomed.info/sct",
          "code": "419984006"
        } ]
      }
    },
    "request": {
      "method": "POST",
      "url": "Observation",
      "ifNoneExist": "identifier=https://mein.krankenhaus.de/fhir/NamingSystem/observationId|7de482fbe6796ce43b85708dc32e096d697d116388f1498f1d5bb4f16a78b771"
    }
  }, {
    "fullUrl": "Observation/abdd0dc3c9e85a82abc9c882e086870c0e7f15893ac648d94ea58572ff2277b2",
    "resource": {
      "resourceType": "Observation",
      "meta": {
        "profile": [ "https://www.netzwerk-universitaetsmedizin.de/fhir/StructureDefinition/sars-cov-2-ab-ser-pl-ia-acnc" ]
      },
      "identifier": [ {
        "type": {
          "coding": [ {
            "system": "http://terminology.hl7.org/CodeSystem/v2-0203",
            "code": "OBI",
            "display": "Observation Instance Identifier"
          } ]
        },
        "system": "https://mein.krankenhaus.de/fhir/NamingSystem/observationId",
        "value": "3ae5fc59dc83ded3a0774b397c9a27eb9ca27b36d9e4016d271a3e8ab288adac",
        "assigner": {
          "reference": "Organization/3a4f3433bce81181bad2d8e0b8fafccf7dc800bc06f29be73dcb38b750a48f9a"
        }
      } ],
      "status": "final",
      "category": [ {
        "coding": [ {
          "system": "http://terminology.hl7.org/CodeSystem/observation-category",
          "code": "laboratory",
          "display": "Laboratory"
        }, {
          "system": "http://loinc.org",
          "code": "26436-6"
        } ]
      } ],
      "code": {
        "coding": [ {
          "system": "http://loinc.org",
          "code": "94769-7",
          "display": "sars-cov-2-covid-19-ab-in-serum-or-plasma-by-immunoassay"
        } ],
        "text": "sarsco_v2_covid19_ab_ia_qn"
      },
      "subject": {
        "reference": "Patient/388bf7d2cb8501bec8aec34b02c8ec24afd31a4b1d990748173f87fafcacb7e4"
      },
      "encounter": {
        "reference": "Encounter/d898144ecb5d517599f188a426ff42c53b3aeae6011f70d92012dcba0cb6877c"
      },
      "effectiveDateTime": "2020-05-10T08:17:00+00:00",
      "valueQuantity": {
        "value": 81.43570198511581,
        "unit": "[IU]/mL",
        "system": "http://unitsofmeasure.org",
        "code": "[IU]/mL"
      }
    },
    "request": {
      "method": "POST",
      "url": "Observation",
      "ifNoneExist": "identifier=https://mein.krankenhaus.de/fhir/NamingSystem/observationId|abdd0dc3c9e85a82abc9c882e086870c0e7f15893ac648d94ea58572ff2277b2"
    }
  }, {
    "fullUrl": "Observation/18d02636404bc2dfaffb6502f96c01d550cd81d82611730c41b6974610511489",
    "resource": {
      "resourceType": "Observation",
      "meta": {
        "profile": [ "https://www.netzwerk-universitaetsmedizin.de/fhir/StructureDefinition/sars-cov-2-iga-ser-pl-ql-ia" ]
      },
      "identifier": [ {
        "type": {
          "coding": [ {
            "system": "http://terminology.hl7.org/CodeSystem/v2-0203",
            "code": "OBI",
            "display": "Observation Instance Identifier"
          } ]
        },
        "system": "https://mein.krankenhaus.de/fhir/NamingSystem/observationId",
        "value": "bae2cd0c7de32940bb4a8a0d9b56922cbea0f828caa5ed81c09b94e89584e0f9",
        "assigner": {
          "reference": "Organization/3a4f3433bce81181bad2d8e0b8fafccf7dc800bc06f29be73dcb38b750a48f9a"
        }
      } ],
      "status": "final",
      "category": [ {
        "coding": [ {
          "system": "http://terminology.hl7.org/CodeSystem/observation-category",
          "code": "laboratory",
          "display": "Laboratory"
        }, {
          "system": "http://loinc.org",
          "code": "26436-6"
        } ]
      } ],
      "code": {
        "coding": [ {
          "system": "http://loinc.org",
          "code": "94562-6",
          "display": "sars-cov-2-covid-19-iga-ab-in-serum-or-plasma-by-immunoassay"
        } ],
        "text": "sarsco_v2_covid19_ig_a_ia_ql"
      },
      "subject": {
        "reference": "Patient/388bf7d2cb8501bec8aec34b02c8ec24afd31a4b1d990748173f87fafcacb7e4"
      },
      "encounter": {
        "reference": "Encounter/d898144ecb5d517599f188a426ff42c53b3aeae6011f70d92012dcba0cb6877c"
      },
      "effectiveDateTime": "2020-05-10T08:17:00+00:00",
      "valueCodeableConcept": {
        "coding": [ {
          "system": "http://snomed.info/sct",
          "code": "419984006"
        } ]
      }
    },
    "request": {
      "method": "POST",
      "url": "Observation",
      "ifNoneExist": "identifier=https://mein.krankenhaus.de/fhir/NamingSystem/observationId|18d02636404bc2dfaffb6502f96c01d550cd81d82611730c41b6974610511489"
    }
  }, {
    "fullUrl": "Observation/8efdf02ae9d404fd44e70301ed0e3d1f1c9d6d789d31c1c7f996aa6d2d4ba777",
    "resource": {
      "resourceType": "Observation",
      "meta": {
        "profile": [ "https://www.netzwerk-universitaetsmedizin.de/fhir/StructureDefinition/sars-cov-2-iga-ser-pl-ia-acnc" ]
      },
      "identifier": [ {
        "type": {
          "coding": [ {
            "system": "http://terminology.hl7.org/CodeSystem/v2-0203",
            "code": "OBI",
            "display": "Observation Instance Identifier"
          } ]
        },
        "system": "https://mein.krankenhaus.de/fhir/NamingSystem/observationId",
        "value": "a6f610dd9c2bf6ecb9f10eb115b89b731690de4c69ddccf484859c49d51346a8",
        "assigner": {
          "reference": "Organization/3a4f3433bce81181bad2d8e0b8fafccf7dc800bc06f29be73dcb38b750a48f9a"
        }
      } ],
      "status": "final",
      "category": [ {
        "coding": [ {
          "system": "http://terminology.hl7.org/CodeSystem/observation-category",
          "code": "laboratory",
          "display": "Laboratory"
        }, {
          "system": "http://loinc.org",
          "code": "26436-6"
        } ]
      } ],
      "code": {
        "coding": [ {
          "system": "http://loinc.org",
          "code": "94720-0",
          "display": "sars-cov-2-covid-19-iga-ab-in-serum-or-plasma-by-immunoassay"
        } ],
        "text": "sarsco_v2_covid19_ig_a_ia_qn"
      },
      "subject": {
        "reference": "Patient/388bf7d2cb8501bec8aec34b02c8ec24afd31a4b1d990748173f87fafcacb7e4"
      },
      "encounter": {
        "reference": "Encounter/d898144ecb5d517599f188a426ff42c53b3aeae6011f70d92012dcba0cb6877c"
      },
      "effectiveDateTime": "2020-05-10T08:17:00+00:00",
      "valueQuantity": {
        "value": 90.57313525985286,
        "unit": "[IU]/mL",
        "system": "http://unitsofmeasure.org",
        "code": "[IU]/mL"
      }
    },
    "request": {
      "method": "POST",
      "url": "Observation",
      "ifNoneExist": "identifier=https://mein.krankenhaus.de/fhir/NamingSystem/observationId|8efdf02ae9d404fd44e70301ed0e3d1f1c9d6d789d31c1c7f996aa6d2d4ba777"
    }
  }, {
    "fullUrl": "Observation/d2a5f04d9a0f3a097ea4a448aa4f8fa49b122166bc4003be545a5b34cc33cef7",
    "resource": {
      "resourceType": "Observation",
      "meta": {
        "profile": [ "https://www.netzwerk-universitaetsmedizin.de/fhir/StructureDefinition/sars-cov-2-igg-ser-pl-ql-ia" ]
      },
      "identifier": [ {
        "type": {
          "coding": [ {
            "system": "http://terminology.hl7.org/CodeSystem/v2-0203",
            "code": "OBI",
            "display": "Observation Instance Identifier"
          } ]
        },
        "system": "https://mein.krankenhaus.de/fhir/NamingSystem/observationId",
        "value": "02e847edfd6b2d3026bbff53555f7f7aafc235bd6f6462d18da0d78938e0ade0",
        "assigner": {
          "reference": "Organization/3a4f3433bce81181bad2d8e0b8fafccf7dc800bc06f29be73dcb38b750a48f9a"
        }
      } ],
      "status": "final",
      "category": [ {
        "coding": [ {
          "system": "http://terminology.hl7.org/CodeSystem/observation-category",
          "code": "laboratory",
          "display": "Laboratory"
        }, {
          "system": "http://loinc.org",
          "code": "26436-6"
        } ]
      } ],
      "code": {
        "coding": [ {
          "system": "http://loinc.org",
          "code": "94563-4",
          "display": "sars-cov-2-covid-19-igg-ab-in-serum-or-plasma-by-immunoassay"
        } ],
        "text": "sarsco_v2_covid19_ig_g_ia_ql"
      },
      "subject": {
        "reference": "Patient/388bf7d2cb8501bec8aec34b02c8ec24afd31a4b1d990748173f87fafcacb7e4"
      },
      "encounter": {
        "reference": "Encounter/d898144ecb5d517599f188a426ff42c53b3aeae6011f70d92012dcba0cb6877c"
      },
      "effectiveDateTime": "2020-05-10T08:17:00+00:00",
      "valueCodeableConcept": {
        "coding": [ {
          "system": "http://snomed.info/sct",
          "code": "419984006"
        } ]
      }
    },
    "request": {
      "method": "POST",
      "url": "Observation",
      "ifNoneExist": "identifier=https://mein.krankenhaus.de/fhir/NamingSystem/observationId|d2a5f04d9a0f3a097ea4a448aa4f8fa49b122166bc4003be545a5b34cc33cef7"
    }
  }, {
    "fullUrl": "Observation/3f7117b3bfa617fc3213077f6abc95afffd4e4af66991ef0afd32444fcc5f860",
    "resource": {
      "resourceType": "Observation",
      "meta": {
        "profile": [ "https://www.netzwerk-universitaetsmedizin.de/fhir/StructureDefinition/sars-cov-2-igg-ser-pl-ia-acnc" ]
      },
      "identifier": [ {
        "type": {
          "coding": [ {
            "system": "http://terminology.hl7.org/CodeSystem/v2-0203",
            "code": "OBI",
            "display": "Observation Instance Identifier"
          } ]
        },
        "system": "https://mein.krankenhaus.de/fhir/NamingSystem/observationId",
        "value": "97a2eec5a7101d3ef1d365c7406c9e4819502e31593e615e65c6e5e1a031188f",
        "assigner": {
          "reference": "Organization/3a4f3433bce81181bad2d8e0b8fafccf7dc800bc06f29be73dcb38b750a48f9a"
        }
      } ],
      "status": "final",
      "category": [ {
        "coding": [ {
          "system": "http://terminology.hl7.org/CodeSystem/observation-category",
          "code": "laboratory",
          "display": "Laboratory"
        }, {
          "system": "http://loinc.org",
          "code": "26436-6"
        } ]
      } ],
      "code": {
        "coding": [ {
          "system": "http://loinc.org",
          "code": "94505-5",
          "display": "sars-cov-2-covid-19-igg-ab-in-serum-or-plasma-by-immunoassay"
        } ],
        "text": "sarsco_v2_covid19_ig_g_ia_qn"
      },
      "subject": {
        "reference": "Patient/388bf7d2cb8501bec8aec34b02c8ec24afd31a4b1d990748173f87fafcacb7e4"
      },
      "encounter": {
        "reference": "Encounter/d898144ecb5d517599f188a426ff42c53b3aeae6011f70d92012dcba0cb6877c"
      },
      "effectiveDateTime": "2020-05-10T08:17:00+00:00",
      "valueQuantity": {
        "value": 34.09316452799243,
        "unit": "[arb'U]/mL",
        "system": "http://unitsofmeasure.org",
        "code": "[arb'U]/mL"
      }
    },
    "request": {
      "method": "POST",
      "url": "Observation",
      "ifNoneExist": "identifier=https://mein.krankenhaus.de/fhir/NamingSystem/observationId|3f7117b3bfa617fc3213077f6abc95afffd4e4af66991ef0afd32444fcc5f860"
    }
  }, {
    "fullUrl": "Observation/3fac71107a16b4839cc437fe6f089dc24f00face8509c6fae5fb915bc47c7fb1",
    "resource": {
      "resourceType": "Observation",
      "meta": {
        "profile": [ "https://www.netzwerk-universitaetsmedizin.de/fhir/StructureDefinition/sars-cov-2-igm-ser-pl-ql-ia" ]
      },
      "identifier": [ {
        "type": {
          "coding": [ {
            "system": "http://terminology.hl7.org/CodeSystem/v2-0203",
            "code": "OBI",
            "display": "Observation Instance Identifier"
          } ]
        },
        "system": "https://mein.krankenhaus.de/fhir/NamingSystem/observationId",
        "value": "69e9a47af15fea0163ce24884a3c3e497cfa1984e550f925ff4d3aedaa21a7bb",
        "assigner": {
          "reference": "Organization/3a4f3433bce81181bad2d8e0b8fafccf7dc800bc06f29be73dcb38b750a48f9a"
        }
      } ],
      "status": "final",
      "category": [ {
        "coding": [ {
          "system": "http://terminology.hl7.org/CodeSystem/observation-category",
          "code": "laboratory",
          "display": "Laboratory"
        }, {
          "system": "http://loinc.org",
          "code": "26436-6"
        } ]
      } ],
      "code": {
        "coding": [ {
          "system": "http://loinc.org",
          "code": "94564-2",
          "display": "sars-cov-2-covid-19-igm-ab-in-serum-or-plasma-by-immunoassay"
        } ],
        "text": "sarsco_v2_covid19_ig_m_ia_ql"
      },
      "subject": {
        "reference": "Patient/388bf7d2cb8501bec8aec34b02c8ec24afd31a4b1d990748173f87fafcacb7e4"
      },
      "encounter": {
        "reference": "Encounter/d898144ecb5d517599f188a426ff42c53b3aeae6011f70d92012dcba0cb6877c"
      },
      "effectiveDateTime": "2020-05-10T08:17:00+00:00",
      "valueCodeableConcept": {
        "coding": [ {
          "system": "http://snomed.info/sct",
          "code": "260415000"
        } ]
      }
    },
    "request": {
      "method": "POST",
      "url": "Observation",
      "ifNoneExist": "identifier=https://mein.krankenhaus.de/fhir/NamingSystem/observationId|3fac71107a16b4839cc437fe6f089dc24f00face8509c6fae5fb915bc47c7fb1"
    }
  }, {
    "fullUrl": "Observation/43187d40c1cf6b74a87af75f7965f23374ff4cf4c18b0ab90c3b7c61334da68d",
    "resource": {
      "resourceType": "Observation",
      "meta": {
        "profile": [ "https://www.netzwerk-universitaetsmedizin.de/fhir/StructureDefinition/sars-cov-2-igm-ser-pl-ia-acnc" ]
      },
      "identifier": [ {
        "type": {
          "coding": [ {
            "system": "http://terminology.hl7.org/CodeSystem/v2-0203",
            "code": "OBI",
            "display": "Observation Instance Identifier"
          } ]
        },
        "system": "https://mein.krankenhaus.de/fhir/NamingSystem/observationId",
        "value": "6be050b1c989ef3bd86548900cf94d003e90046394e7faf71e192e0b0eda550e",
        "assigner": {
          "reference": "Organization/3a4f3433bce81181bad2d8e0b8fafccf7dc800bc06f29be73dcb38b750a48f9a"
        }
      } ],
      "status": "final",
      "category": [ {
        "coding": [ {
          "system": "http://terminology.hl7.org/CodeSystem/observation-category",
          "code": "laboratory",
          "display": "Laboratory"
        }, {
          "system": "http://loinc.org",
          "code": "26436-6"
        } ]
      } ],
      "code": {
        "coding": [ {
          "system": "http://loinc.org",
          "code": "94506-3",
          "display": "sars-cov-2-covid-19-igm-ab-in-serum-or-plasma-by-immunoassay"
        } ],
        "text": "sarsco_v2_covid19_ig_m_ia_qn"
      },
      "subject": {
        "reference": "Patient/388bf7d2cb8501bec8aec34b02c8ec24afd31a4b1d990748173f87fafcacb7e4"
      },
      "encounter": {
        "reference": "Encounter/d898144ecb5d517599f188a426ff42c53b3aeae6011f70d92012dcba0cb6877c"
      },
      "effectiveDateTime": "2020-05-10T08:17:00+00:00",
      "valueQuantity": {
        "value": 25.723221754638857,
        "unit": "[arb'U]/mL",
        "system": "http://unitsofmeasure.org",
        "code": "[arb'U]/mL"
      }
    },
    "request": {
      "method": "POST",
      "url": "Observation",
      "ifNoneExist": "identifier=https://mein.krankenhaus.de/fhir/NamingSystem/observationId|43187d40c1cf6b74a87af75f7965f23374ff4cf4c18b0ab90c3b7c61334da68d"
    }
  }, {
    "fullUrl": "MedicationStatement/467e9ddd5917b7cd1508f97b5d58900b9307bb6b0fe35217403132ec42e6c460",
    "resource": {
      "resourceType": "MedicationStatement",
      "meta": {
        "profile": [ "https://www.netzwerk-universitaetsmedizin.de/fhir/StructureDefinition/pharmacological-therapy" ]
      },
      "identifier": [ {
        "system": "https://mein.krankenhaus.de/fhir/NamingSystem/medicationstatementId",
        "value": "c9b629357d1ad6a93a96b4793efb6199c54879403bd48593230c78a76795bc95"
      } ],
      "status": "not-taken",
      "medicationCodeableConcept": {
        "coding": [ {
          "system": "http://snomed.info/sct",
          "code": "41549009"
        } ],
        "text": "ACE inhibitors"
      },
      "subject": {
        "reference": "Patient/388bf7d2cb8501bec8aec34b02c8ec24afd31a4b1d990748173f87fafcacb7e4"
      },
      "effectiveDateTime": "2020-09-22T05:25:00+00:00"
    },
    "request": {
      "method": "POST",
      "url": "MedicationStatement",
      "ifNoneExist": "identifier=https://mein.krankenhaus.de/fhir/NamingSystem/medicationstatementId|467e9ddd5917b7cd1508f97b5d58900b9307bb6b0fe35217403132ec42e6c460"
    }
  }, {
    "fullUrl": "MedicationStatement/0889cdc67fa7bc161913060987fa169098e73b157affe6babfe727b38e6f4c85",
    "resource": {
      "resourceType": "MedicationStatement",
      "meta": {
        "profile": [ "https://www.netzwerk-universitaetsmedizin.de/fhir/StructureDefinition/pharmacological-therapy" ]
      },
      "identifier": [ {
        "system": "https://mein.krankenhaus.de/fhir/NamingSystem/medicationstatementId",
        "value": "0e7559c1e514d4e1c5faba7ea4ed13751d98638c0111812ee5dc904a897250fb"
      } ],
      "status": "unknown",
      "medicationCodeableConcept": {
        "coding": [ {
          "system": "http://snomed.info/sct",
          "code": "333710000"
        } ],
        "text": "immunoglobulins"
      },
      "subject": {
        "reference": "Patient/388bf7d2cb8501bec8aec34b02c8ec24afd31a4b1d990748173f87fafcacb7e4"
      },
      "effectiveDateTime": "2020-09-22T05:25:00+00:00"
    },
    "request": {
      "method": "POST",
      "url": "MedicationStatement",
      "ifNoneExist": "identifier=https://mein.krankenhaus.de/fhir/NamingSystem/medicationstatementId|0889cdc67fa7bc161913060987fa169098e73b157affe6babfe727b38e6f4c85"
    }
  }, {
    "fullUrl": "MedicationStatement/5deed8a534b7d8606477c918853915adf0b47da1cb998c91c5db6d30717ae390",
    "resource": {
      "resourceType": "MedicationStatement",
      "meta": {
        "profile": [ "https://www.netzwerk-universitaetsmedizin.de/fhir/StructureDefinition/pharmacological-therapy" ]
      },
      "identifier": [ {
        "system": "https://mein.krankenhaus.de/fhir/NamingSystem/medicationstatementId",
        "value": "293e082b42606c277e699685c2bc75a01070c5008b67472c05a4529189c83968"
      } ],
      "status": "active",
      "medicationCodeableConcept": {
        "coding": [ {
          "system": "http://snomed.info/sct",
          "code": "41549009"
        } ],
        "text": "ACE inhibitors"
      },
      "subject": {
        "reference": "Patient/388bf7d2cb8501bec8aec34b02c8ec24afd31a4b1d990748173f87fafcacb7e4"
      },
      "effectiveDateTime": "2020-11-22T23:19:00+00:00"
    },
    "request": {
      "method": "POST",
      "url": "MedicationStatement",
      "ifNoneExist": "identifier=https://mein.krankenhaus.de/fhir/NamingSystem/medicationstatementId|5deed8a534b7d8606477c918853915adf0b47da1cb998c91c5db6d30717ae390"
    }
  }, {
    "fullUrl": "MedicationStatement/c17f73eecccc966166b668c01136948c9c762a8fcd0214f407778395e2a92ee5",
    "resource": {
      "resourceType": "MedicationStatement",
      "meta": {
        "profile": [ "https://www.netzwerk-universitaetsmedizin.de/fhir/StructureDefinition/pharmacological-therapy" ]
      },
      "identifier": [ {
        "system": "https://mein.krankenhaus.de/fhir/NamingSystem/medicationstatementId",
        "value": "a7e122f29655410c4cba72ea0f2002f38cb9f7ddd1dec3041b56bb9e8a8b7e4a"
      } ],
      "status": "not-taken",
      "medicationCodeableConcept": {
        "coding": [ {
          "system": "http://snomed.info/sct",
          "code": "41549009"
        } ],
        "text": "ACE inhibitors"
      },
      "subject": {
        "reference": "Patient/388bf7d2cb8501bec8aec34b02c8ec24afd31a4b1d990748173f87fafcacb7e4"
      },
      "effectiveDateTime": "2020-05-02T20:39:00+00:00"
    },
    "request": {
      "method": "POST",
      "url": "MedicationStatement",
      "ifNoneExist": "identifier=https://mein.krankenhaus.de/fhir/NamingSystem/medicationstatementId|c17f73eecccc966166b668c01136948c9c762a8fcd0214f407778395e2a92ee5"
    }
  }, {
    "fullUrl": "MedicationStatement/e08a3deb8a033f75a011ecdf70abeb87afccbac7fbda14132b0151002db1baaa",
    "resource": {
      "resourceType": "MedicationStatement",
      "meta": {
        "profile": [ "https://www.netzwerk-universitaetsmedizin.de/fhir/StructureDefinition/pharmacological-therapy" ]
      },
      "identifier": [ {
        "system": "https://mein.krankenhaus.de/fhir/NamingSystem/medicationstatementId",
        "value": "7c5a289639e291154e297529341bf731ba114c6c2d6baaaea2f0db9b6de58261"
      } ],
      "status": "unknown",
      "medicationCodeableConcept": {
        "coding": [ {
          "system": "http://snomed.info/sct",
          "code": "333710000"
        } ],
        "text": "immunoglobulins"
      },
      "subject": {
        "reference": "Patient/388bf7d2cb8501bec8aec34b02c8ec24afd31a4b1d990748173f87fafcacb7e4"
      },
      "effectiveDateTime": "2020-05-02T20:39:00+00:00"
    },
    "request": {
      "method": "POST",
      "url": "MedicationStatement",
      "ifNoneExist": "identifier=https://mein.krankenhaus.de/fhir/NamingSystem/medicationstatementId|e08a3deb8a033f75a011ecdf70abeb87afccbac7fbda14132b0151002db1baaa"
    }
  }, {
    "fullUrl": "MedicationStatement/92f2318c691d14bbb9264eb5c1be3ab1beccc09f3e9c708b3eb98d2b318b48a6",
    "resource": {
      "resourceType": "MedicationStatement",
      "meta": {
        "profile": [ "https://www.netzwerk-universitaetsmedizin.de/fhir/StructureDefinition/pharmacological-therapy-anticoagulants" ]
      },
      "identifier": [ {
        "system": "https://mein.krankenhaus.de/fhir/NamingSystem/medicationstatementId",
        "value": "1921f202302e5e37a215f68727244cdf4edc68803843b4cec9bd7a7912c91555"
      } ],
      "status": "unknown",
      "medicationCodeableConcept": {
        "coding": [ {
          "system": "http://snomed.info/sct",
          "code": "81839001"
        }, {
          "system": "http://fhir.de/CodeSystem/dimdi/atc",
          "code": "B01AB01"
        }, {
          "system": "http://fhir.de/CodeSystem/dimdi/atc",
          "code": "B01AB51"
        } ]
      },
      "subject": {
        "reference": "Patient/388bf7d2cb8501bec8aec34b02c8ec24afd31a4b1d990748173f87fafcacb7e4"
      },
      "effectiveDateTime": "2020-05-02T20:39:00+00:00",
      "reasonCode": [ {
        "coding": [ {
          "system": "http://snomed.info/sct",
          "code": "373808002",
          "display": "Curative - procedure intent (qualifier value)"
        } ]
      } ]
    },
    "request": {
      "method": "POST",
      "url": "MedicationStatement",
      "ifNoneExist": "identifier=https://mein.krankenhaus.de/fhir/NamingSystem/medicationstatementId|92f2318c691d14bbb9264eb5c1be3ab1beccc09f3e9c708b3eb98d2b318b48a6"
    }
  }, {
    "fullUrl": "MedicationStatement/c50cdb664b738903c3c64d0928591682ba9083b0547b8ba76bdcda6b05203333",
    "resource": {
      "resourceType": "MedicationStatement",
      "meta": {
        "profile": [ "https://www.netzwerk-universitaetsmedizin.de/fhir/StructureDefinition/pharmacological-therapy-anticoagulants" ]
      },
      "identifier": [ {
        "system": "https://mein.krankenhaus.de/fhir/NamingSystem/medicationstatementId",
        "value": "5e31b484e6675993e4d4933955864d09ad10199db9fc70fd5a03929606f7444c"
      } ],
      "status": "not-taken",
      "medicationCodeableConcept": {
        "coding": [ {
          "system": "http://snomed.info/sct",
          "code": "81839001"
        }, {
          "system": "http://fhir.de/CodeSystem/dimdi/atc",
          "code": "B01AB08"
        }, {
          "system": "http://fhir.de/CodeSystem/dimdi/atc",
          "code": "B01AB13"
        }, {
          "system": "http://fhir.de/CodeSystem/dimdi/atc",
          "code": "B01AB04"
        }, {
          "system": "http://fhir.de/CodeSystem/dimdi/atc",
          "code": "B01AB05"
        }, {
          "system": "http://fhir.de/CodeSystem/dimdi/atc",
          "code": "B01AB06"
        }, {
          "system": "http://fhir.de/CodeSystem/dimdi/atc",
          "code": "B01AB10"
        }, {
          "system": "http://fhir.de/CodeSystem/dimdi/atc",
          "code": "B01AB12"
        }, {
          "system": "http://fhir.de/CodeSystem/dimdi/atc",
          "code": "B01AB63"
        }, {
          "system": "http://fhir.de/CodeSystem/dimdi/atc",
          "code": "B01AB07"
        }, {
          "system": "http://fhir.de/CodeSystem/dimdi/atc",
          "code": "B01AB11"
        } ]
      },
      "subject": {
        "reference": "Patient/388bf7d2cb8501bec8aec34b02c8ec24afd31a4b1d990748173f87fafcacb7e4"
      },
      "effectiveDateTime": "2020-05-02T20:39:00+00:00",
      "reasonCode": [ {
        "coding": [ {
          "system": "http://snomed.info/sct",
          "code": "373808002",
          "display": "Curative - procedure intent (qualifier value)"
        } ]
      } ]
    },
    "request": {
      "method": "POST",
      "url": "MedicationStatement",
      "ifNoneExist": "identifier=https://mein.krankenhaus.de/fhir/NamingSystem/medicationstatementId|c50cdb664b738903c3c64d0928591682ba9083b0547b8ba76bdcda6b05203333"
    }
  }, {
    "fullUrl": "MedicationStatement/6277d1be1af231d60ce2a58cb51a1e85c0fcf517ff49cfd37ac4d071947a33f5",
    "resource": {
      "resourceType": "MedicationStatement",
      "meta": {
        "profile": [ "https://www.netzwerk-universitaetsmedizin.de/fhir/StructureDefinition/pharmacological-therapy-anticoagulants" ]
      },
      "identifier": [ {
        "system": "https://mein.krankenhaus.de/fhir/NamingSystem/medicationstatementId",
        "value": "d60bca97cea416ccb76306ffbd275cfcbfec63595772f3791867a67006cb67f1"
      } ],
      "status": "unknown",
      "medicationCodeableConcept": {
        "coding": [ {
          "system": "http://snomed.info/sct",
          "code": "81839001"
        }, {
          "system": "http://fhir.de/CodeSystem/dimdi/atc",
          "code": "B01AE03"
        } ]
      },
      "subject": {
        "reference": "Patient/388bf7d2cb8501bec8aec34b02c8ec24afd31a4b1d990748173f87fafcacb7e4"
      },
      "effectiveDateTime": "2020-05-02T20:39:00+00:00",
      "reasonCode": [ {
        "coding": [ {
          "system": "http://snomed.info/sct",
          "code": "373808002",
          "display": "Curative - procedure intent (qualifier value)"
        } ]
      } ]
    },
    "request": {
      "method": "POST",
      "url": "MedicationStatement",
      "ifNoneExist": "identifier=https://mein.krankenhaus.de/fhir/NamingSystem/medicationstatementId|6277d1be1af231d60ce2a58cb51a1e85c0fcf517ff49cfd37ac4d071947a33f5"
    }
  }, {
    "fullUrl": "MedicationStatement/de0b52e0a04ac840eba683a953ad95c27f7988778d7147d989e30273ebd52b1d",
    "resource": {
      "resourceType": "MedicationStatement",
      "meta": {
        "profile": [ "https://www.netzwerk-universitaetsmedizin.de/fhir/StructureDefinition/pharmacological-therapy-anticoagulants" ]
      },
      "identifier": [ {
        "system": "https://mein.krankenhaus.de/fhir/NamingSystem/medicationstatementId",
        "value": "ff227528ad0002ec611f9bb987975b7998b5ae4d4fe6ffe24739227d0ad60dd4"
      } ],
      "status": "not-taken",
      "medicationCodeableConcept": {
        "coding": [ {
          "system": "http://snomed.info/sct",
          "code": "81839001"
        }, {
          "system": "http://fhir.de/CodeSystem/dimdi/atc",
          "code": "B01AB09"
        } ]
      },
      "subject": {
        "reference": "Patient/388bf7d2cb8501bec8aec34b02c8ec24afd31a4b1d990748173f87fafcacb7e4"
      },
      "effectiveDateTime": "2020-05-02T20:39:00+00:00",
      "reasonCode": [ {
        "coding": [ {
          "system": "http://snomed.info/sct",
          "code": "373808002",
          "display": "Curative - procedure intent (qualifier value)"
        } ]
      } ]
    },
    "request": {
      "method": "POST",
      "url": "MedicationStatement",
      "ifNoneExist": "identifier=https://mein.krankenhaus.de/fhir/NamingSystem/medicationstatementId|de0b52e0a04ac840eba683a953ad95c27f7988778d7147d989e30273ebd52b1d"
    }
  }, {
    "fullUrl": "MedicationStatement/ad0b568f06d06231e6232c3ad6c11599172d3d5a14596840a1824fe1b141d6d9",
    "resource": {
      "resourceType": "MedicationStatement",
      "meta": {
        "profile": [ "https://www.netzwerk-universitaetsmedizin.de/fhir/StructureDefinition/pharmacological-therapy-anticoagulants" ]
      },
      "identifier": [ {
        "system": "https://mein.krankenhaus.de/fhir/NamingSystem/medicationstatementId",
        "value": "ee68b696db6adc7329ff9e92019b0d3d5e1ec0602d976ddcb33650985ea60ceb"
      } ],
      "status": "not-taken",
      "medicationCodeableConcept": {
        "coding": [ {
          "system": "http://snomed.info/sct",
          "code": "81839001"
        }, {
          "system": "http://fhir.de/CodeSystem/dimdi/atc",
          "code": "B01AA04"
        } ]
      },
      "subject": {
        "reference": "Patient/388bf7d2cb8501bec8aec34b02c8ec24afd31a4b1d990748173f87fafcacb7e4"
      },
      "effectiveDateTime": "2020-05-02T20:39:00+00:00",
      "reasonCode": [ {
        "coding": [ {
          "system": "http://snomed.info/sct",
          "code": "373808002",
          "display": "Curative - procedure intent (qualifier value)"
        } ]
      } ]
    },
    "request": {
      "method": "POST",
      "url": "MedicationStatement",
      "ifNoneExist": "identifier=https://mein.krankenhaus.de/fhir/NamingSystem/medicationstatementId|ad0b568f06d06231e6232c3ad6c11599172d3d5a14596840a1824fe1b141d6d9"
    }
  }, {
    "fullUrl": "MedicationStatement/a0e09d86e83c9158ef43b5fdde3f4e927a948274c0618adc3e16c04f35b3ed10",
    "resource": {
      "resourceType": "MedicationStatement",
      "meta": {
        "profile": [ "https://www.netzwerk-universitaetsmedizin.de/fhir/StructureDefinition/pharmacological-therapy-anticoagulants" ]
      },
      "identifier": [ {
        "system": "https://mein.krankenhaus.de/fhir/NamingSystem/medicationstatementId",
        "value": "0ae33780b7b6de1706dcdd6861d9a53f04df9a003cd28de06c3b38afca71bcbd"
      } ],
      "status": "active",
      "medicationCodeableConcept": {
        "coding": [ {
          "system": "http://snomed.info/sct",
          "code": "81839001"
        }, {
          "system": "http://snomed.info/sct",
          "code": "385432009",
          "display": "Not applicable (qualifier value)"
        } ]
      },
      "subject": {
        "reference": "Patient/388bf7d2cb8501bec8aec34b02c8ec24afd31a4b1d990748173f87fafcacb7e4"
      },
      "effectiveDateTime": "2020-05-02T20:39:00+00:00",
      "reasonCode": [ {
        "coding": [ {
          "system": "http://snomed.info/sct",
          "code": "373808002",
          "display": "Curative - procedure intent (qualifier value)"
        } ]
      } ]
    },
    "request": {
      "method": "POST",
      "url": "MedicationStatement",
      "ifNoneExist": "identifier=https://mein.krankenhaus.de/fhir/NamingSystem/medicationstatementId|a0e09d86e83c9158ef43b5fdde3f4e927a948274c0618adc3e16c04f35b3ed10"
    }
  }, {
    "fullUrl": "Observation/1915a5b7900ce4c37dff8efdc47f39cd63dee113c89d8175d43bd9d1a7b0f9e3",
    "resource": {
      "resourceType": "Observation",
      "meta": {
        "profile": [ "https://www.netzwerk-universitaetsmedizin.de/fhir/StructureDefinition/carbon-dioxide-partial-pressure" ]
      },
      "identifier": [ {
        "type": {
          "coding": [ {
            "system": "http://terminology.hl7.org/CodeSystem/v2-0203",
            "code": "OBI",
            "display": "Observation Instance Identifier"
          } ]
        },
        "system": "https://mein.krankenhaus.de/fhir/NamingSystem/observationId",
        "value": "3c0883762e8297490f6f9c8b23212a1c985eee8828a57ccb2f7779596c3fb6f0",
        "assigner": {
          "reference": "Organization/3a4f3433bce81181bad2d8e0b8fafccf7dc800bc06f29be73dcb38b750a48f9a"
        }
      } ],
      "status": "final",
      "category": [ {
        "coding": [ {
          "system": "http://terminology.hl7.org/CodeSystem/observation-category",
          "code": "laboratory",
          "display": "Laboratory"
        }, {
          "system": "http://loinc.org",
          "code": "26436-6",
          "display": "Laboratory studies (set)"
        }, {
          "system": "http://loinc.org",
          "code": "18767-4",
          "display": "Blood gas studies (set)"
        } ]
      } ],
      "code": {
        "coding": [ {
          "system": "http://loinc.org",
          "code": "11557-6"
        } ],
        "text": "Carbon dioxide [Partial pressure] in blood"
      },
      "subject": {
        "reference": "Patient/388bf7d2cb8501bec8aec34b02c8ec24afd31a4b1d990748173f87fafcacb7e4"
      },
      "encounter": {
        "reference": "Encounter/d898144ecb5d517599f188a426ff42c53b3aeae6011f70d92012dcba0cb6877c"
      },
      "effectiveDateTime": "2020-06-13T07:36:00+00:00",
      "valueQuantity": {
        "value": 144,
        "unit": "mmHg",
        "system": "http://unitsofmeasure.org",
        "code": "mm[Hg]"
      }
    },
    "request": {
      "method": "POST",
      "url": "Observation",
      "ifNoneExist": "identifier=https://mein.krankenhaus.de/fhir/NamingSystem/observationId|1915a5b7900ce4c37dff8efdc47f39cd63dee113c89d8175d43bd9d1a7b0f9e3"
    }
  }, {
    "fullUrl": "Observation/f931cacd0a3dce8c0ba7959df15a67dbfd1c07078ca8a7ffb2d1a48940e51a2a",
    "resource": {
      "resourceType": "Observation",
      "meta": {
        "profile": [ "https://www.netzwerk-universitaetsmedizin.de/fhir/StructureDefinition/oxygen-partial-pressure" ]
      },
      "identifier": [ {
        "type": {
          "coding": [ {
            "system": "http://terminology.hl7.org/CodeSystem/v2-0203",
            "code": "OBI",
            "display": "Observation Instance Identifier"
          } ]
        },
        "system": "https://mein.krankenhaus.de/fhir/NamingSystem/observationId",
        "value": "75a5d4f322fe71f3bd990976863f82f5ecea4186bc42c535197870f74f0b09e0",
        "assigner": {
          "reference": "Organization/3a4f3433bce81181bad2d8e0b8fafccf7dc800bc06f29be73dcb38b750a48f9a"
        }
      } ],
      "status": "final",
      "category": [ {
        "coding": [ {
          "system": "http://terminology.hl7.org/CodeSystem/observation-category",
          "code": "laboratory",
          "display": "Laboratory"
        }, {
          "system": "http://loinc.org",
          "code": "26436-6",
          "display": "Laboratory studies (set)"
        }, {
          "system": "http://loinc.org",
          "code": "18767-4",
          "display": "Blood gas studies (set)"
        } ]
      } ],
      "code": {
        "coding": [ {
          "system": "http://loinc.org",
          "code": "11557-8"
        } ],
        "text": "Oxygen [Partial pressure] in blood"
      },
      "subject": {
        "reference": "Patient/388bf7d2cb8501bec8aec34b02c8ec24afd31a4b1d990748173f87fafcacb7e4"
      },
      "encounter": {
        "reference": "Encounter/d898144ecb5d517599f188a426ff42c53b3aeae6011f70d92012dcba0cb6877c"
      },
      "effectiveDateTime": "2020-06-13T07:36:00+00:00",
      "valueQuantity": {
        "value": 28,
        "unit": "mmHg",
        "system": "http://unitsofmeasure.org",
        "code": "mm[Hg]"
      }
    },
    "request": {
      "method": "POST",
      "url": "Observation",
      "ifNoneExist": "identifier=https://mein.krankenhaus.de/fhir/NamingSystem/observationId|f931cacd0a3dce8c0ba7959df15a67dbfd1c07078ca8a7ffb2d1a48940e51a2a"
    }
  }, {
    "fullUrl": "Observation/ff17fd5e237349ed607e4a048acc965fccaefbd701c6001054537dca3fb0a4da",
    "resource": {
      "resourceType": "Observation",
      "meta": {
        "profile": [ "https://www.netzwerk-universitaetsmedizin.de/fhir/StructureDefinition/inhaled-oxygen-concentration" ]
      },
      "identifier": [ {
        "type": {
          "coding": [ {
            "system": "http://terminology.hl7.org/CodeSystem/v2-0203",
            "code": "OBI",
            "display": "Observation Instance Identifier"
          } ]
        },
        "system": "https://mein.krankenhaus.de/fhir/NamingSystem/observationId",
        "value": "687c5730ea658c4df4ad1634ea56197c3b04a5e1177ce7e8dbd50dd8ceb8c1f2",
        "assigner": {
          "reference": "Organization/3a4f3433bce81181bad2d8e0b8fafccf7dc800bc06f29be73dcb38b750a48f9a"
        }
      } ],
      "status": "final",
      "category": [ {
        "coding": [ {
          "system": "http://terminology.hl7.org/CodeSystem/observation-category",
          "code": "laboratory",
          "display": "Laboratory"
        }, {
          "system": "http://loinc.org",
          "code": "26436-6",
          "display": "Laboratory studies (set)"
        }, {
          "system": "http://loinc.org",
          "code": "18767-4",
          "display": "Blood gas studies (set)"
        } ]
      } ],
      "code": {
        "coding": [ {
          "system": "http://loinc.org",
          "code": "3150-0"
        }, {
          "system": "http://snomed.info/sct",
          "code": "250774007"
        } ],
        "text": "Oxygen [Partial pressure] in blood"
      },
      "subject": {
        "reference": "Patient/388bf7d2cb8501bec8aec34b02c8ec24afd31a4b1d990748173f87fafcacb7e4"
      },
      "encounter": {
        "reference": "Encounter/d898144ecb5d517599f188a426ff42c53b3aeae6011f70d92012dcba0cb6877c"
      },
      "effectiveDateTime": "2020-06-13T07:36:00+00:00",
      "valueQuantity": {
        "value": 33.12396647996223,
        "unit": "%",
        "system": "http://unitsofmeasure.org",
        "code": "%"
      }
    },
    "request": {
      "method": "POST",
      "url": "Observation",
      "ifNoneExist": "identifier=https://mein.krankenhaus.de/fhir/NamingSystem/observationId|ff17fd5e237349ed607e4a048acc965fccaefbd701c6001054537dca3fb0a4da"
    }
  }, {
    "fullUrl": "Observation/1f75df18a575ae46847b8a770d4fac6b1c4f492616bd6780419b8963c77c8b9c",
    "resource": {
      "resourceType": "Observation",
      "meta": {
        "profile": [ "https://www.netzwerk-universitaetsmedizin.de/fhir/StructureDefinition/pH" ]
      },
      "identifier": [ {
        "type": {
          "coding": [ {
            "system": "http://terminology.hl7.org/CodeSystem/v2-0203",
            "code": "OBI",
            "display": "Observation Instance Identifier"
          } ]
        },
        "system": "https://mein.krankenhaus.de/fhir/NamingSystem/observationId",
        "value": "bb6c07eed1b4907226cdeeadeefd4b88422ba7a2fd040b209214c50dbe3a1c3e",
        "assigner": {
          "reference": "Organization/3a4f3433bce81181bad2d8e0b8fafccf7dc800bc06f29be73dcb38b750a48f9a"
        }
      } ],
      "status": "final",
      "category": [ {
        "coding": [ {
          "system": "http://terminology.hl7.org/CodeSystem/observation-category",
          "code": "laboratory",
          "display": "Laboratory"
        }, {
          "system": "http://loinc.org",
          "code": "26436-6",
          "display": "Laboratory studies (set)"
        }, {
          "system": "http://loinc.org",
          "code": "18767-4",
          "display": "Blood gas studies (set)"
        } ]
      } ],
      "code": {
        "coding": [ {
          "system": "http://loinc.org",
          "code": "11558-4"
        } ],
        "text": "pH of Blood"
      },
      "subject": {
        "reference": "Patient/388bf7d2cb8501bec8aec34b02c8ec24afd31a4b1d990748173f87fafcacb7e4"
      },
      "encounter": {
        "reference": "Encounter/d898144ecb5d517599f188a426ff42c53b3aeae6011f70d92012dcba0cb6877c"
      },
      "effectiveDateTime": "2020-06-13T07:36:00+00:00",
      "valueQuantity": {
        "value": 11.95722262253033,
        "unit": "pH",
        "system": "http://unitsofmeasure.org",
        "code": "[pH]"
      }
    },
    "request": {
      "method": "POST",
      "url": "Observation",
      "ifNoneExist": "identifier=https://mein.krankenhaus.de/fhir/NamingSystem/observationId|1f75df18a575ae46847b8a770d4fac6b1c4f492616bd6780419b8963c77c8b9c"
    }
  }, {
    "fullUrl": "Observation/ae06a6d01e145b25d44e5776bd057d5e761608faffb239dabac50a8ce4ac00a6",
    "resource": {
      "resourceType": "Observation",
      "meta": {
        "profile": [ "https://www.netzwerk-universitaetsmedizin.de/fhir/StructureDefinition/sofa-score" ]
      },
      "identifier": [ {
        "type": {
          "coding": [ {
            "system": "http://terminology.hl7.org/CodeSystem/v2-0203",
            "code": "OBI",
            "display": "Observation Instance Identifier"
          } ]
        },
        "system": "https://mein.krankenhaus.de/fhir/NamingSystem/observationId",
        "value": "6f1c7bf6c7ad53931512015af136699a72f924e6d4dc7679f9d18b52047d6995",
        "assigner": {
          "reference": "Organization/3a4f3433bce81181bad2d8e0b8fafccf7dc800bc06f29be73dcb38b750a48f9a"
        }
      } ],
      "status": "final",
      "category": [ {
        "coding": [ {
          "system": "http://terminology.hl7.org/CodeSystem/observation-category",
          "code": "survey",
          "display": "Survey"
        } ]
      } ],
      "code": {
        "coding": [ {
          "system": "https://www.netzwerk-universitaetsmedizin.de/fhir/CodeSystem/ecrf-parameter-codes",
          "code": "06",
          "display": "SOFA-Score"
        } ],
        "text": "Sepsis-related organ failure assessment score"
      },
      "subject": {
        "reference": "Patient/388bf7d2cb8501bec8aec34b02c8ec24afd31a4b1d990748173f87fafcacb7e4"
      },
      "encounter": {
        "reference": "Encounter/d898144ecb5d517599f188a426ff42c53b3aeae6011f70d92012dcba0cb6877c"
      },
      "effectiveDateTime": "2020-06-13T07:36:00+00:00",
      "valueInteger": 14,
      "component": [ {
        "code": {
          "coding": [ {
            "system": "https://www.netzwerk-universitaetsmedizin.de/fhir/CodeSystem/sofa-score",
            "code": "resp",
            "display": "Respiratory system"
          } ],
          "text": "SOFA Respiratory system scoring category"
        },
        "valueCodeableConcept": {
          "coding": [ {
            "system": "https://www.netzwerk-universitaetsmedizin.de/fhir/CodeSystem/sofa-score",
            "code": "resp1",
            "display": "Respiratory system SOFA score 1"
          } ],
          "text": "PaO2/FiO2 [mmHg (kPa)] < 400 (53.3)"
        }
      }, {
        "code": {
          "coding": [ {
            "system": "https://www.netzwerk-universitaetsmedizin.de/fhir/CodeSystem/sofa-score",
            "code": "ns",
            "display": "Nervous system"
          } ],
          "text": "SOFA Nervous system scoring category"
        },
        "valueCodeableConcept": {
          "coding": [ {
            "system": "https://www.netzwerk-universitaetsmedizin.de/fhir/CodeSystem/sofa-score",
            "code": "ns2",
            "display": "Nervous system SOFA score 2"
          } ],
          "text": "Glasgow Coma Scale (GCS) 10-12"
        }
      }, {
        "code": {
          "coding": [ {
            "system": "https://www.netzwerk-universitaetsmedizin.de/fhir/CodeSystem/sofa-score",
            "code": "kid",
            "display": "Kidneys"
          } ],
          "text": "SOFA Kidneys scoring category"
        },
        "valueCodeableConcept": {
          "coding": [ {
            "system": "https://www.netzwerk-universitaetsmedizin.de/fhir/CodeSystem/sofa-score",
            "code": "kid2",
            "display": "Kidneys SOFA score 2"
          } ],
          "text": "Creatinine (mg/dl) [?mol/L] (or urine output) 2.0-3.4 [171-299]"
        }
      }, {
        "code": {
          "coding": [ {
            "system": "https://www.netzwerk-universitaetsmedizin.de/fhir/CodeSystem/sofa-score",
            "code": "cvs",
            "display": "Cardiovascular system"
          } ],
          "text": "SOFA Cardiovascular system scoring category"
        },
        "valueCodeableConcept": {
          "coding": [ {
            "system": "https://www.netzwerk-universitaetsmedizin.de/fhir/CodeSystem/sofa-score",
            "code": "cvs4",
            "display": "Cardiovascular system SOFA score 4"
          } ],
          "text": "Administration of dopamine > 15 ug/kg/min OR epinephrine > 0.1 ug/kg/min OR norepinephrine > 0.1 ug/kg/min"
        }
      }, {
        "code": {
          "coding": [ {
            "system": "https://www.netzwerk-universitaetsmedizin.de/fhir/CodeSystem/sofa-score",
            "code": "liv",
            "display": "Liver"
          } ],
          "text": "SOFA Liver scoring category"
        },
        "valueCodeableConcept": {
          "coding": [ {
            "system": "https://www.netzwerk-universitaetsmedizin.de/fhir/CodeSystem/sofa-score",
            "code": "liv2",
            "display": "Liver SOFA score 2"
          } ],
          "text": "Bilirubin (mg/dl) [umol/L] 2.0-5.9 [33-101]"
        }
      }, {
        "code": {
          "coding": [ {
            "system": "https://www.netzwerk-universitaetsmedizin.de/fhir/CodeSystem/sofa-score",
            "code": "coa",
            "display": "Coagulation"
          } ],
          "text": "SOFA Coagulation scoring category"
        },
        "valueCodeableConcept": {
          "coding": [ {
            "system": "https://www.netzwerk-universitaetsmedizin.de/fhir/CodeSystem/sofa-score",
            "code": "coa3",
            "display": "Coagulation SOFA score 3"
          } ],
          "text": "Platelets10^3/ul < 50"
        }
      } ]
    },
    "request": {
      "method": "POST",
      "url": "Observation",
      "ifNoneExist": "identifier=https://mein.krankenhaus.de/fhir/NamingSystem/observationId|ae06a6d01e145b25d44e5776bd057d5e761608faffb239dabac50a8ce4ac00a6"
    }
  }, {
    "fullUrl": "Observation/67637be9c299742548fb43c2355d190ac668d2a5b32f02fa6fb5391f86d78a88",
    "resource": {
      "resourceType": "Observation",
      "meta": {
        "profile": [ "https://www.netzwerk-universitaetsmedizin.de/fhir/StructureDefinition/respiratory-rate" ]
      },
      "identifier": [ {
        "type": {
          "coding": [ {
            "system": "http://terminology.hl7.org/CodeSystem/v2-0203",
            "code": "OBI",
            "display": "Observation Instance Identifier"
          } ]
        },
        "system": "https://mein.krankenhaus.de/fhir/NamingSystem/observationId",
        "value": "aa6c48fa1eff2a898b6c47026d288b2f8b955594ffcb942b27246304d1fe288a",
        "assigner": {
          "reference": "Organization/3a4f3433bce81181bad2d8e0b8fafccf7dc800bc06f29be73dcb38b750a48f9a"
        }
      } ],
      "status": "final",
      "category": [ {
        "coding": [ {
          "system": "http://terminology.hl7.org/CodeSystem/observation-category",
          "code": "vital-signs",
          "display": "Vital Signs"
        } ]
      } ],
      "code": {
        "coding": [ {
          "system": "http://loinc.org",
          "code": "9279-1"
        }, {
          "system": "http://snomed.info/sct",
          "code": "86290005"
        } ],
        "text": "Respiratory rate"
      },
      "subject": {
        "reference": "Patient/388bf7d2cb8501bec8aec34b02c8ec24afd31a4b1d990748173f87fafcacb7e4"
      },
      "encounter": {
        "reference": "Encounter/d898144ecb5d517599f188a426ff42c53b3aeae6011f70d92012dcba0cb6877c"
      },
      "effectiveDateTime": "2020-06-13T07:36:00+00:00",
      "valueQuantity": {
        "value": 56,
        "unit": "per minute",
        "system": "http://unitsofmeasure.org",
        "code": "/min"
      }
    },
    "request": {
      "method": "POST",
      "url": "Observation",
      "ifNoneExist": "identifier=https://mein.krankenhaus.de/fhir/NamingSystem/observationId|67637be9c299742548fb43c2355d190ac668d2a5b32f02fa6fb5391f86d78a88"
    }
  }, {
    "fullUrl": "Observation/59bcad7a3c98d9f688deacd80bff927f3df6fc97cb06b468021da4223a759b8c",
    "resource": {
      "resourceType": "Observation",
      "meta": {
        "profile": [ "https://www.netzwerk-universitaetsmedizin.de/fhir/StructureDefinition/blood-pressure" ]
      },
      "identifier": [ {
        "type": {
          "coding": [ {
            "system": "http://terminology.hl7.org/CodeSystem/v2-0203",
            "code": "OBI",
            "display": "Observation Instance Identifier"
          } ]
        },
        "system": "https://mein.krankenhaus.de/fhir/NamingSystem/observationId",
        "value": "43f0393a999640d24261ab1f1e801e424d45985728f6f53411b23a437e54e62c",
        "assigner": {
          "reference": "Organization/3a4f3433bce81181bad2d8e0b8fafccf7dc800bc06f29be73dcb38b750a48f9a"
        }
      } ],
      "status": "final",
      "category": [ {
        "coding": [ {
          "system": "http://terminology.hl7.org/CodeSystem/observation-category",
          "code": "vital-signs",
          "display": "Vital Signs"
        } ]
      } ],
      "code": {
        "coding": [ {
          "system": "http://loinc.org",
          "code": "85354-9",
          "display": "Blood pressure panel with all children optional"
        }, {
          "system": "http://snomed.info/sct",
          "code": "75367002",
          "display": "Blood pressure (observable entity)"
        } ],
        "text": "Blood pressure"
      },
      "subject": {
        "reference": "Patient/388bf7d2cb8501bec8aec34b02c8ec24afd31a4b1d990748173f87fafcacb7e4"
      },
      "encounter": {
        "reference": "Encounter/d898144ecb5d517599f188a426ff42c53b3aeae6011f70d92012dcba0cb6877c"
      },
      "effectiveDateTime": "2020-06-13T07:36:00+00:00",
      "component": [ {
        "code": {
          "coding": [ {
            "system": "http://loinc.org",
            "code": "8480-6"
          }, {
            "system": "http://snomed.info/sct",
            "code": "271649006"
          } ],
          "text": "Systolic blood pressure"
        },
        "valueQuantity": {
          "value": 120,
          "unit": "mmHg",
          "system": "http://unitsofmeasure.org",
          "code": "mm[Hg]"
        }
      }, {
        "code": {
          "coding": [ {
            "system": "http://loinc.org",
            "code": "8462-4"
          }, {
            "system": "http://snomed.info/sct",
            "code": "271650006"
          } ],
          "text": "Diastolic blood pressure"
        },
        "valueQuantity": {
          "value": 44,
          "unit": "mmHg",
          "system": "http://unitsofmeasure.org",
          "code": "mm[Hg]"
        }
      } ]
    },
    "request": {
      "method": "POST",
      "url": "Observation",
      "ifNoneExist": "identifier=https://mein.krankenhaus.de/fhir/NamingSystem/observationId|59bcad7a3c98d9f688deacd80bff927f3df6fc97cb06b468021da4223a759b8c"
    }
  }, {
    "fullUrl": "Observation/e7b347775e73657e3d09540af509dfa61b7974d323f5c80cb8b411fc8f57b203",
    "resource": {
      "resourceType": "Observation",
      "meta": {
        "profile": [ "https://www.netzwerk-universitaetsmedizin.de/fhir/StructureDefinition/heart-rate" ]
      },
      "identifier": [ {
        "type": {
          "coding": [ {
            "system": "http://terminology.hl7.org/CodeSystem/v2-0203",
            "code": "OBI",
            "display": "Observation Instance Identifier"
          } ]
        },
        "system": "https://mein.krankenhaus.de/fhir/NamingSystem/observationId",
        "value": "7901169dc3553a7570bc2858ec57c6b4773cd317265d53b6f89286b3ee9e0ed4",
        "assigner": {
          "reference": "Organization/3a4f3433bce81181bad2d8e0b8fafccf7dc800bc06f29be73dcb38b750a48f9a"
        }
      } ],
      "status": "final",
      "category": [ {
        "coding": [ {
          "system": "http://terminology.hl7.org/CodeSystem/observation-category",
          "code": "vital-signs",
          "display": "Vital Signs"
        } ]
      } ],
      "code": {
        "coding": [ {
          "system": "http://loinc.org",
          "code": "8867-4"
        }, {
          "system": "http://snomed.info/sct",
          "code": "364075005"
        } ],
        "text": "Heart rate"
      },
      "subject": {
        "reference": "Patient/388bf7d2cb8501bec8aec34b02c8ec24afd31a4b1d990748173f87fafcacb7e4"
      },
      "encounter": {
        "reference": "Encounter/d898144ecb5d517599f188a426ff42c53b3aeae6011f70d92012dcba0cb6877c"
      },
      "effectiveDateTime": "2020-06-13T07:36:00+00:00",
      "valueQuantity": {
        "value": 86,
        "unit": "per minute",
        "system": "http://unitsofmeasure.org",
        "code": "/min"
      }
    },
    "request": {
      "method": "POST",
      "url": "Observation",
      "ifNoneExist": "identifier=https://mein.krankenhaus.de/fhir/NamingSystem/observationId|e7b347775e73657e3d09540af509dfa61b7974d323f5c80cb8b411fc8f57b203"
    }
  }, {
    "fullUrl": "Observation/845a4f795e77138c6c0cf04a8f83f71b84a4d6a9737b4d19c5d826f7a734f28a",
    "resource": {
      "resourceType": "Observation",
      "meta": {
        "profile": [ "https://www.netzwerk-universitaetsmedizin.de/fhir/StructureDefinition/body-temperature" ]
      },
      "identifier": [ {
        "type": {
          "coding": [ {
            "system": "http://terminology.hl7.org/CodeSystem/v2-0203",
            "code": "OBI",
            "display": "Observation Instance Identifier"
          } ]
        },
        "system": "https://mein.krankenhaus.de/fhir/NamingSystem/observationId",
        "value": "6c3e6024690e88739bf9059e7d1b5df511e991681eea1905efa764fbc742ac77",
        "assigner": {
          "reference": "Organization/3a4f3433bce81181bad2d8e0b8fafccf7dc800bc06f29be73dcb38b750a48f9a"
        }
      } ],
      "status": "final",
      "category": [ {
        "coding": [ {
          "system": "http://terminology.hl7.org/CodeSystem/observation-category",
          "code": "vital-signs",
          "display": "Vital Signs"
        } ]
      } ],
      "code": {
        "coding": [ {
          "system": "http://loinc.org",
          "code": "8310-5"
        }, {
          "system": "http://snomed.info/sct",
          "code": "386725007"
        } ],
        "text": "Body temperature"
      },
      "subject": {
        "reference": "Patient/388bf7d2cb8501bec8aec34b02c8ec24afd31a4b1d990748173f87fafcacb7e4"
      },
      "encounter": {
        "reference": "Encounter/d898144ecb5d517599f188a426ff42c53b3aeae6011f70d92012dcba0cb6877c"
      },
      "effectiveDateTime": "2020-06-13T07:36:00+00:00",
      "valueQuantity": {
        "value": 31.163663445990707,
        "unit": "C",
        "system": "http://unitsofmeasure.org",
        "code": "Cel"
      }
    },
    "request": {
      "method": "POST",
      "url": "Observation",
      "ifNoneExist": "identifier=https://mein.krankenhaus.de/fhir/NamingSystem/observationId|845a4f795e77138c6c0cf04a8f83f71b84a4d6a9737b4d19c5d826f7a734f28a"
    }
  }, {
    "fullUrl": "Observation/ce3ae09142bb9ff89fddc795e167b5acd70c4c7fd275f21f1a9c5ae382f752dd",
    "resource": {
      "resourceType": "Observation",
      "meta": {
        "profile": [ "https://www.netzwerk-universitaetsmedizin.de/fhir/StructureDefinition/oxygen-saturation" ]
      },
      "identifier": [ {
        "type": {
          "coding": [ {
            "system": "http://terminology.hl7.org/CodeSystem/v2-0203",
            "code": "OBI",
            "display": "Observation Instance Identifier"
          } ]
        },
        "system": "https://mein.krankenhaus.de/fhir/NamingSystem/observationId",
        "value": "db53a5fc6760f2aad8e10280f4edcaf9e678db520d3766163af9e5e3140afd13",
        "assigner": {
          "reference": "Organization/3a4f3433bce81181bad2d8e0b8fafccf7dc800bc06f29be73dcb38b750a48f9a"
        }
      } ],
      "status": "final",
      "category": [ {
        "coding": [ {
          "system": "http://terminology.hl7.org/CodeSystem/observation-category",
          "code": "vital-signs",
          "display": "Vital Signs"
        } ]
      } ],
      "code": {
        "coding": [ {
          "system": "http://loinc.org",
          "code": "2708-6"
        }, {
          "system": "http://loinc.org",
          "code": "59408-5"
        }, {
          "system": "http://loinc.org",
          "code": "20564-1"
        }, {
          "system": "http://snomed.info/sct",
          "code": "431314004"
        } ],
        "text": "Oxygen saturation in Arterial blood"
      },
      "subject": {
        "reference": "Patient/388bf7d2cb8501bec8aec34b02c8ec24afd31a4b1d990748173f87fafcacb7e4"
      },
      "encounter": {
        "reference": "Encounter/d898144ecb5d517599f188a426ff42c53b3aeae6011f70d92012dcba0cb6877c"
      },
      "effectiveDateTime": "2020-06-13T07:36:00+00:00",
      "valueQuantity": {
        "value": 27,
        "unit": "%",
        "system": "http://unitsofmeasure.org",
        "code": "%"
      }
    },
    "request": {
      "method": "POST",
      "url": "Observation",
      "ifNoneExist": "identifier=https://mein.krankenhaus.de/fhir/NamingSystem/observationId|ce3ae09142bb9ff89fddc795e167b5acd70c4c7fd275f21f1a9c5ae382f752dd"
    }
  }, {
    "fullUrl": "Observation/a3a858b79043bf715852886605ec1a78c608adcb57ef982e29f8a62fc2b6b238",
    "resource": {
      "resourceType": "Observation",
      "meta": {
        "profile": [ "https://www.netzwerk-universitaetsmedizin.de/fhir/StructureDefinition/study-inclusion-covid-19" ]
      },
      "identifier": [ {
        "type": {
          "coding": [ {
            "system": "http://terminology.hl7.org/CodeSystem/v2-0203",
            "code": "OBI",
            "display": "Observation Instance Identifier"
          } ]
        },
        "system": "https://mein.krankenhaus.de/fhir/NamingSystem/observationId",
        "value": "c2ec807b31e0d91100927f715ee6d675113a99223faf432e55baa43d847c45e5",
        "assigner": {
          "reference": "Organization/3a4f3433bce81181bad2d8e0b8fafccf7dc800bc06f29be73dcb38b750a48f9a"
        }
      } ],
      "status": "final",
      "category": [ {
        "coding": [ {
          "system": "http://terminology.hl7.org/CodeSystem/observation-category",
          "code": "survey",
          "display": "Survey"
        } ]
      } ],
      "code": {
        "coding": [ {
          "system": "https://www.netzwerk-universitaetsmedizin.de/fhir/CodeSystem/ecrf-parameter-codes",
          "code": "02",
          "display": "Study inclusion due to Covid-19"
        } ],
        "text": "Confirmed Covid-19 diagnosis as main reason for enrolment in the study"
      },
      "subject": {
        "reference": "Patient/388bf7d2cb8501bec8aec34b02c8ec24afd31a4b1d990748173f87fafcacb7e4"
      },
      "_effectiveDateTime": {
        "extension": [ {
          "url": "http://hl7.org/fhir/StructureDefinition/data-absent-reason",
          "valueCode": "unknown"
        } ]
      },
      "valueCodeableConcept": {
        "coding": [ {
          "system": "http://snomed.info/sct",
          "code": "261665006"
        } ]
      }
    },
    "request": {
      "method": "POST",
      "url": "Observation",
      "ifNoneExist": "identifier=https://mein.krankenhaus.de/fhir/NamingSystem/observationId|a3a858b79043bf715852886605ec1a78c608adcb57ef982e29f8a62fc2b6b238"
    }
  }, {
    "fullUrl": "Observation/19742419e3d0cb23777f28725666310946bff3d99b6c087287921c1bba3cf24b",
    "resource": {
      "resourceType": "Observation",
      "meta": {
        "profile": [ "https://www.netzwerk-universitaetsmedizin.de/fhir/StructureDefinition/interventional-clinical-trial-participation" ]
      },
      "identifier": [ {
        "type": {
          "coding": [ {
            "system": "http://terminology.hl7.org/CodeSystem/v2-0203",
            "code": "OBI",
            "display": "Observation Instance Identifier"
          } ]
        },
        "system": "https://mein.krankenhaus.de/fhir/NamingSystem/observationId",
        "value": "7e04824ad5803a33954384955899edccfee455bcc745a75c1dfefff7a6c527e9",
        "assigner": {
          "reference": "Organization/3a4f3433bce81181bad2d8e0b8fafccf7dc800bc06f29be73dcb38b750a48f9a"
        }
      } ],
      "status": "final",
      "category": [ {
        "coding": [ {
          "system": "http://terminology.hl7.org/CodeSystem/observation-category",
          "code": "survey",
          "display": "Survey"
        } ]
      } ],
      "code": {
        "coding": [ {
          "system": "https://www.netzwerk-universitaetsmedizin.de/fhir/CodeSystem/ecrf-parameter-codes",
          "code": "03",
          "display": "Participation in interventional clinical trials"
        } ],
        "text": "Has the patient participated in one or more interventional clinical trials?"
      },
      "subject": {
        "reference": "Patient/388bf7d2cb8501bec8aec34b02c8ec24afd31a4b1d990748173f87fafcacb7e4"
      },
      "_effectiveDateTime": {
        "extension": [ {
          "url": "http://hl7.org/fhir/StructureDefinition/data-absent-reason",
          "valueCode": "unknown"
        } ]
      },
      "valueCodeableConcept": {
        "coding": [ {
          "system": "http://snomed.info/sct",
          "code": "261665006"
        } ]
      }
    },
    "request": {
      "method": "POST",
      "url": "Observation",
      "ifNoneExist": "identifier=https://mein.krankenhaus.de/fhir/NamingSystem/observationId|19742419e3d0cb23777f28725666310946bff3d99b6c087287921c1bba3cf24b"
    }
  } ]
}