{
  "resourceType": "Bundle",
  "meta": {
    "profile": [ "https://www.netzwerk-universitaetsmedizin.de/fhir/StructureDefinition/gecco-bundle" ]
  },
  "type": "transaction",
  "entry": [ {
    "fullUrl": "Patient/f6ee5f3017cc35438708b106cdd30e8dae87cf64c8378e9ceb95ce94abf776ad",
    "resource": {
      "resourceType": "Patient",
      "meta": {
        "profile": [ "https://www.netzwerk-universitaetsmedizin.de/fhir/StructureDefinition/Patient" ]
      },
      "extension": [ {
        "url": "https://www.netzwerk-universitaetsmedizin.de/fhir/StructureDefinition/age",
        "extension": [ {
          "url": "dateTimeOfDocumentation",
          "_valueDateTime": {
            "extension": [ {
              "url": "http://hl7.org/fhir/StructureDefinition/data-absent-reason",
              "valueCode": "unknown"
            } ]
          }
        }, {
          "url": "age",
          "valueAge": {
            "value": 39,
            "unit": "years",
            "system": "http://unitsofmeasure.org",
            "code": "a"
          }
        } ]
      }, {
        "url": "https://www.netzwerk-universitaetsmedizin.de/fhir/StructureDefinition/ethnic-group",
        "valueCoding": {
          "system": "http://snomed.info/sct",
          "code": "186019001"
        }
      } ],
      "identifier": [ {
        "type": {
          "coding": [ {
            "system": "http://terminology.hl7.org/CodeSystem/v2-0203",
            "code": "MR"
          } ]
        },
        "system": "https://mein.krankenhaus.de/fhir/NamingSystem/patientId",
        "value": "synthetic_patient_060784361",
        "assigner": {
          "reference": "Organization/3a4f3433bce81181bad2d8e0b8fafccf7dc800bc06f29be73dcb38b750a48f9a"
        }
      } ],
      "birthDate": "1981-07-18"
    },
    "request": {
      "method": "POST",
      "url": "Patient",
      "ifNoneExist": "identifier=https://mein.krankenhaus.de/fhir/NamingSystem/patientId|f6ee5f3017cc35438708b106cdd30e8dae87cf64c8378e9ceb95ce94abf776ad"
    }
  }, {
    "fullUrl": "Organization/3a4f3433bce81181bad2d8e0b8fafccf7dc800bc06f29be73dcb38b750a48f9a",
    "resource": {
      "resourceType": "Organization",
      "name": "Mein Krankenhaus"
    },
    "request": {
      "method": "POST",
      "url": "Organization",
      "ifNoneExist": "identifier=null|3a4f3433bce81181bad2d8e0b8fafccf7dc800bc06f29be73dcb38b750a48f9a"
    }
  }, {
    "fullUrl": "Encounter/3d40a0eefcd3dcd2f282e1c696adf36a547ac80cb03017279011ea4f66e809c5",
    "resource": {
      "resourceType": "Encounter",
      "identifier": [ {
        "system": "https://mein.krankenhaus.de/fhir/NamingSystem/encounterId",
        "value": "c2846bec13ea130f46be1c3a2a5e0d696676b88a3e36600dff9929bb72836b75",
        "assigner": {
          "reference": "Organization/3a4f3433bce81181bad2d8e0b8fafccf7dc800bc06f29be73dcb38b750a48f9a"
        }
      } ],
      "status": "unknown",
      "class": {
        "system": "http://terminology.hl7.org/CodeSystem/v3-ActCode",
        "code": "IMP",
        "display": "inpatient encounter"
      },
      "subject": {
        "reference": "Patient/f6ee5f3017cc35438708b106cdd30e8dae87cf64c8378e9ceb95ce94abf776ad"
      }
    },
    "request": {
      "method": "POST",
      "url": "Encounter",
      "ifNoneExist": "identifier=https://mein.krankenhaus.de/fhir/NamingSystem/encounterId|3d40a0eefcd3dcd2f282e1c696adf36a547ac80cb03017279011ea4f66e809c5"
    }
  }, {
    "fullUrl": "Condition/ce7d2632714b3a7b01c0ec2f889972b7b6451338a5eac78988617f1f0e1bdb99",
    "resource": {
      "resourceType": "Condition",
      "meta": {
        "profile": [ "https://www.netzwerk-universitaetsmedizin.de/fhir/StructureDefinition/diagnosis-covid-19" ]
      },
      "identifier": [ {
        "system": "https://mein.krankenhaus.de/fhir/NamingSystem/conditionId",
        "value": "5aa0260e01697caef63ea504093b970fcc7ae0e0e0bfae0d70928e8610c09034"
      } ],
      "clinicalStatus": {
        "coding": [ {
          "system": "http://terminology.hl7.org/CodeSystem/condition-clinical",
          "code": "active",
          "display": "Active"
        } ]
      },
      "verificationStatus": {
        "coding": [ {
          "system": "http://terminology.hl7.org/CodeSystem/condition-ver-status",
          "code": "confirmed",
          "display": "Confirmed"
        }, {
          "system": "http://snomed.info/sct",
          "code": "410605003",
          "display": "Confirmed present (qualifier value)"
        } ]
      },
      "category": [ {
        "coding": [ {
          "system": "http://snomed.info/sct",
          "code": "394807007",
          "display": "Infectious diseases (specialty) (qualifier value)"
        } ]
      } ],
      "code": {
        "coding": [ {
          "system": "http://snomed.info/sct",
          "code": "840539006",
          "display": "Disease caused by Severe acute respiratory syndrome coronavirus 2 (disorder)"
        } ]
      },
      "subject": {
        "reference": "Patient/f6ee5f3017cc35438708b106cdd30e8dae87cf64c8378e9ceb95ce94abf776ad"
      },
      "encounter": {
        "reference": "Encounter/3d40a0eefcd3dcd2f282e1c696adf36a547ac80cb03017279011ea4f66e809c5"
      },
      "_recordedDate": {
        "extension": [ {
          "url": "http://hl7.org/fhir/StructureDefinition/data-absent-reason",
          "valueCode": "unknown"
        } ]
      },
      "stage": [ {
        "summary": {
          "coding": [ {
            "system": "http://snomed.info/sct",
            "code": "255604002"
          } ]
        },
        "type": {
          "coding": [ {
            "system": "http://loinc.org",
            "code": "88859-4"
          } ]
        }
      } ]
    },
    "request": {
      "method": "POST",
      "url": "Condition",
      "ifNoneExist": "identifier=https://mein.krankenhaus.de/fhir/NamingSystem/conditionId|ce7d2632714b3a7b01c0ec2f889972b7b6451338a5eac78988617f1f0e1bdb99"
    }
  }, {
    "fullUrl": "Condition/bc8c57b264dfc21a890b91a6216660c50d3d40201df8c7aa1232f810d93fa860",
    "resource": {
      "resourceType": "Condition",
      "meta": {
        "profile": [ "https://www.netzwerk-universitaetsmedizin.de/fhir/StructureDefinition/chronic-lung-diseases" ]
      },
      "identifier": [ {
        "system": "https://mein.krankenhaus.de/fhir/NamingSystem/conditionId",
        "value": "2918e50b093a8a9c54b5618a33c3d8b7bc67c1fbfce77ec38b59fa42b4d89999"
      } ],
      "clinicalStatus": {
        "coding": [ {
          "system": "http://terminology.hl7.org/CodeSystem/condition-clinical",
          "code": "active",
          "display": "Active"
        } ]
      },
      "verificationStatus": {
        "coding": [ {
          "system": "http://terminology.hl7.org/CodeSystem/condition-ver-status",
          "code": "confirmed",
          "display": "Confirmed"
        }, {
          "system": "http://snomed.info/sct",
          "code": "410605003",
          "display": "Confirmed present (qualifier value)"
        } ]
      },
      "category": [ {
        "coding": [ {
          "system": "http://snomed.info/sct",
          "code": "418112009",
          "display": "Pulmonary medicine (qualifier value)"
        } ]
      } ],
      "code": {
        "coding": [ {
          "system": "http://fhir.de/CodeSystem/dimdi/icd-10-gm",
          "version": "2021",
          "code": "J45.9"
        }, {
          "system": "http://snomed.info/sct",
          "code": "195967001"
        } ]
      },
      "subject": {
        "reference": "Patient/f6ee5f3017cc35438708b106cdd30e8dae87cf64c8378e9ceb95ce94abf776ad"
      },
      "encounter": {
        "reference": "Encounter/3d40a0eefcd3dcd2f282e1c696adf36a547ac80cb03017279011ea4f66e809c5"
      },
      "_recordedDate": {
        "extension": [ {
          "url": "http://hl7.org/fhir/StructureDefinition/data-absent-reason",
          "valueCode": "unknown"
        } ]
      }
    },
    "request": {
      "method": "POST",
      "url": "Condition",
      "ifNoneExist": "identifier=https://mein.krankenhaus.de/fhir/NamingSystem/conditionId|bc8c57b264dfc21a890b91a6216660c50d3d40201df8c7aa1232f810d93fa860"
    }
  }, {
    "fullUrl": "Condition/25fe9f8058e4bc871f45a0254776c7b0944cafdb0dceda2b330add658432550f",
    "resource": {
      "resourceType": "Condition",
      "meta": {
        "profile": [ "https://www.netzwerk-universitaetsmedizin.de/fhir/StructureDefinition/chronic-lung-diseases" ]
      },
      "identifier": [ {
        "system": "https://mein.krankenhaus.de/fhir/NamingSystem/conditionId",
        "value": "be8de7ce7693cb221907d821418a4efb6bd2f20346eff7d6ed8385004f57083e"
      } ],
      "verificationStatus": {
        "coding": [ {
          "system": "http://terminology.hl7.org/CodeSystem/condition-ver-status",
          "code": "refuted",
          "display": "Refuted"
        }, {
          "system": "http://snomed.info/sct",
          "code": "410594000",
          "display": "Definitely NOT present (qualifier value)"
        } ]
      },
      "category": [ {
        "coding": [ {
          "system": "http://snomed.info/sct",
          "code": "418112009",
          "display": "Pulmonary medicine (qualifier value)"
        } ]
      } ],
      "code": {
        "coding": [ {
          "system": "http://fhir.de/CodeSystem/dimdi/icd-10-gm",
          "version": "2021",
          "code": "J44.9"
        }, {
          "system": "http://snomed.info/sct",
          "code": "13645005"
        } ]
      },
      "subject": {
        "reference": "Patient/f6ee5f3017cc35438708b106cdd30e8dae87cf64c8378e9ceb95ce94abf776ad"
      },
      "encounter": {
        "reference": "Encounter/3d40a0eefcd3dcd2f282e1c696adf36a547ac80cb03017279011ea4f66e809c5"
      },
      "_recordedDate": {
        "extension": [ {
          "url": "http://hl7.org/fhir/StructureDefinition/data-absent-reason",
          "valueCode": "unknown"
        } ]
      }
    },
    "request": {
      "method": "POST",
      "url": "Condition",
      "ifNoneExist": "identifier=https://mein.krankenhaus.de/fhir/NamingSystem/conditionId|25fe9f8058e4bc871f45a0254776c7b0944cafdb0dceda2b330add658432550f"
    }
  }, {
    "fullUrl": "Condition/57952328c20066ce43a5e6d079569fd3bc8736e1046c756197fd8b193e4b1b5c",
    "resource": {
      "resourceType": "Condition",
      "meta": {
        "profile": [ "https://www.netzwerk-universitaetsmedizin.de/fhir/StructureDefinition/chronic-lung-diseases" ]
      },
      "identifier": [ {
        "system": "https://mein.krankenhaus.de/fhir/NamingSystem/conditionId",
        "value": "b024f8be2ff7b628b131e88f388feb2f5298bdc13810a77de68695298a65229e"
      } ],
      "verificationStatus": {
        "coding": [ {
          "system": "http://terminology.hl7.org/CodeSystem/condition-ver-status",
          "code": "refuted",
          "display": "Refuted"
        }, {
          "system": "http://snomed.info/sct",
          "code": "410594000",
          "display": "Definitely NOT present (qualifier value)"
        } ]
      },
      "category": [ {
        "coding": [ {
          "system": "http://snomed.info/sct",
          "code": "418112009",
          "display": "Pulmonary medicine (qualifier value)"
        } ]
      } ],
      "code": {
        "coding": [ {
          "system": "http://fhir.de/CodeSystem/dimdi/icd-10-gm",
          "version": "2021",
          "code": "J84.1"
        }, {
          "system": "http://snomed.info/sct",
          "code": "51615001"
        } ]
      },
      "subject": {
        "reference": "Patient/f6ee5f3017cc35438708b106cdd30e8dae87cf64c8378e9ceb95ce94abf776ad"
      },
      "encounter": {
        "reference": "Encounter/3d40a0eefcd3dcd2f282e1c696adf36a547ac80cb03017279011ea4f66e809c5"
      },
      "_recordedDate": {
        "extension": [ {
          "url": "http://hl7.org/fhir/StructureDefinition/data-absent-reason",
          "valueCode": "unknown"
        } ]
      }
    },
    "request": {
      "method": "POST",
      "url": "Condition",
      "ifNoneExist": "identifier=https://mein.krankenhaus.de/fhir/NamingSystem/conditionId|57952328c20066ce43a5e6d079569fd3bc8736e1046c756197fd8b193e4b1b5c"
    }
  }, {
    "fullUrl": "Condition/df450c9e19b6f6a8e83718dbb3e09a5e7bbdd34fc526ca61fe69f56997dee800",
    "resource": {
      "resourceType": "Condition",
      "meta": {
        "profile": [ "https://www.netzwerk-universitaetsmedizin.de/fhir/StructureDefinition/chronic-lung-diseases" ]
      },
      "identifier": [ {
        "system": "https://mein.krankenhaus.de/fhir/NamingSystem/conditionId",
        "value": "30bf6890603efd5fac5be58217e0a032d752f47b2327fb71f88f691fc9621a15"
      } ],
      "verificationStatus": {
        "coding": [ {
          "system": "http://terminology.hl7.org/CodeSystem/condition-ver-status",
          "code": "refuted",
          "display": "Refuted"
        }, {
          "system": "http://snomed.info/sct",
          "code": "410594000",
          "display": "Definitely NOT present (qualifier value)"
        } ]
      },
      "category": [ {
        "coding": [ {
          "system": "http://snomed.info/sct",
          "code": "418112009",
          "display": "Pulmonary medicine (qualifier value)"
        } ]
      } ],
      "code": {
        "coding": [ {
          "system": "http://fhir.de/CodeSystem/dimdi/icd-10-gm",
          "version": "2021",
          "code": "I27.0"
        }, {
          "system": "http://snomed.info/sct",
          "code": "70995007"
        } ]
      },
      "subject": {
        "reference": "Patient/f6ee5f3017cc35438708b106cdd30e8dae87cf64c8378e9ceb95ce94abf776ad"
      },
      "encounter": {
        "reference": "Encounter/3d40a0eefcd3dcd2f282e1c696adf36a547ac80cb03017279011ea4f66e809c5"
      },
      "_recordedDate": {
        "extension": [ {
          "url": "http://hl7.org/fhir/StructureDefinition/data-absent-reason",
          "valueCode": "unknown"
        } ]
      }
    },
    "request": {
      "method": "POST",
      "url": "Condition",
      "ifNoneExist": "identifier=https://mein.krankenhaus.de/fhir/NamingSystem/conditionId|df450c9e19b6f6a8e83718dbb3e09a5e7bbdd34fc526ca61fe69f56997dee800"
    }
  }, {
    "fullUrl": "Condition/27e18f03d10b3ea240bb470491365548421e8046d3ae1edbfa328351d14a9c64",
    "resource": {
      "resourceType": "Condition",
      "meta": {
        "profile": [ "https://www.netzwerk-universitaetsmedizin.de/fhir/StructureDefinition/chronic-lung-diseases" ]
      },
      "identifier": [ {
        "system": "https://mein.krankenhaus.de/fhir/NamingSystem/conditionId",
        "value": "b8e2a7602502f3e094cc3566a68718f0e3f47847ece1e7afd63a2c8e59b2af94"
      } ],
      "verificationStatus": {
        "coding": [ {
          "system": "http://terminology.hl7.org/CodeSystem/condition-ver-status",
          "code": "refuted",
          "display": "Refuted"
        }, {
          "system": "http://snomed.info/sct",
          "code": "410594000",
          "display": "Definitely NOT present (qualifier value)"
        } ]
      },
      "category": [ {
        "coding": [ {
          "system": "http://snomed.info/sct",
          "code": "418112009",
          "display": "Pulmonary medicine (qualifier value)"
        } ]
      } ],
      "code": {
        "coding": [ {
          "system": "http://fhir.de/CodeSystem/dimdi/icd-10-gm",
          "version": "2021",
          "code": "E66.29"
        }, {
          "system": "http://snomed.info/sct",
          "code": "190966007"
        } ]
      },
      "subject": {
        "reference": "Patient/f6ee5f3017cc35438708b106cdd30e8dae87cf64c8378e9ceb95ce94abf776ad"
      },
      "encounter": {
        "reference": "Encounter/3d40a0eefcd3dcd2f282e1c696adf36a547ac80cb03017279011ea4f66e809c5"
      },
      "_recordedDate": {
        "extension": [ {
          "url": "http://hl7.org/fhir/StructureDefinition/data-absent-reason",
          "valueCode": "unknown"
        } ]
      }
    },
    "request": {
      "method": "POST",
      "url": "Condition",
      "ifNoneExist": "identifier=https://mein.krankenhaus.de/fhir/NamingSystem/conditionId|27e18f03d10b3ea240bb470491365548421e8046d3ae1edbfa328351d14a9c64"
    }
  }, {
    "fullUrl": "Condition/bfe5c0dee357e5413a4b6281589a2e9197e1faef9bacb518e605eb844d6d265d",
    "resource": {
      "resourceType": "Condition",
      "meta": {
        "profile": [ "https://www.netzwerk-universitaetsmedizin.de/fhir/StructureDefinition/chronic-lung-diseases" ]
      },
      "identifier": [ {
        "system": "https://mein.krankenhaus.de/fhir/NamingSystem/conditionId",
        "value": "1608e162be70203e81584855c7b026ab6e5ce0fd17625763c342d815dc4f8ec6"
      } ],
      "clinicalStatus": {
        "coding": [ {
          "system": "http://terminology.hl7.org/CodeSystem/condition-clinical",
          "code": "active",
          "display": "Active"
        } ]
      },
      "verificationStatus": {
        "coding": [ {
          "system": "http://terminology.hl7.org/CodeSystem/condition-ver-status",
          "code": "confirmed",
          "display": "Confirmed"
        }, {
          "system": "http://snomed.info/sct",
          "code": "410605003",
          "display": "Confirmed present (qualifier value)"
        } ]
      },
      "category": [ {
        "coding": [ {
          "system": "http://snomed.info/sct",
          "code": "418112009",
          "display": "Pulmonary medicine (qualifier value)"
        } ]
      } ],
      "code": {
        "coding": [ {
          "system": "http://fhir.de/CodeSystem/dimdi/icd-10-gm",
          "version": "2021",
          "code": "G47.3"
        }, {
          "system": "http://snomed.info/sct",
          "code": "73430006"
        } ]
      },
      "subject": {
        "reference": "Patient/f6ee5f3017cc35438708b106cdd30e8dae87cf64c8378e9ceb95ce94abf776ad"
      },
      "encounter": {
        "reference": "Encounter/3d40a0eefcd3dcd2f282e1c696adf36a547ac80cb03017279011ea4f66e809c5"
      },
      "_recordedDate": {
        "extension": [ {
          "url": "http://hl7.org/fhir/StructureDefinition/data-absent-reason",
          "valueCode": "unknown"
        } ]
      }
    },
    "request": {
      "method": "POST",
      "url": "Condition",
      "ifNoneExist": "identifier=https://mein.krankenhaus.de/fhir/NamingSystem/conditionId|bfe5c0dee357e5413a4b6281589a2e9197e1faef9bacb518e605eb844d6d265d"
    }
  }, {
    "fullUrl": "Condition/ee951cf70ab29b5a2e5719fe7cc8f45465bb718aeee9ba590283f2d17f0dd1d0",
    "resource": {
      "resourceType": "Condition",
      "meta": {
        "profile": [ "https://www.netzwerk-universitaetsmedizin.de/fhir/StructureDefinition/chronic-lung-diseases" ]
      },
      "identifier": [ {
        "system": "https://mein.krankenhaus.de/fhir/NamingSystem/conditionId",
        "value": "247a63b00c194aa2a182d7f3ca744f5da2d9dcbf5da1b51129a64230e93f0dde"
      } ],
      "clinicalStatus": {
        "coding": [ {
          "system": "http://terminology.hl7.org/CodeSystem/condition-clinical",
          "code": "active",
          "display": "Active"
        } ]
      },
      "verificationStatus": {
        "coding": [ {
          "system": "http://terminology.hl7.org/CodeSystem/condition-ver-status",
          "code": "confirmed",
          "display": "Confirmed"
        }, {
          "system": "http://snomed.info/sct",
          "code": "410605003",
          "display": "Confirmed present (qualifier value)"
        } ]
      },
      "category": [ {
        "coding": [ {
          "system": "http://snomed.info/sct",
          "code": "418112009",
          "display": "Pulmonary medicine (qualifier value)"
        } ]
      } ],
      "code": {
        "coding": [ {
          "system": "http://fhir.de/CodeSystem/dimdi/icd-10-gm",
          "version": "2021",
          "code": "G47.31"
        }, {
          "system": "http://snomed.info/sct",
          "code": "78275009"
        } ]
      },
      "subject": {
        "reference": "Patient/f6ee5f3017cc35438708b106cdd30e8dae87cf64c8378e9ceb95ce94abf776ad"
      },
      "encounter": {
        "reference": "Encounter/3d40a0eefcd3dcd2f282e1c696adf36a547ac80cb03017279011ea4f66e809c5"
      },
      "_recordedDate": {
        "extension": [ {
          "url": "http://hl7.org/fhir/StructureDefinition/data-absent-reason",
          "valueCode": "unknown"
        } ]
      }
    },
    "request": {
      "method": "POST",
      "url": "Condition",
      "ifNoneExist": "identifier=https://mein.krankenhaus.de/fhir/NamingSystem/conditionId|ee951cf70ab29b5a2e5719fe7cc8f45465bb718aeee9ba590283f2d17f0dd1d0"
    }
  }, {
    "fullUrl": "Condition/0e4d8bfe85f765f0270cf97639b0d2e964ba82f1afc6c14494007bed5df11fdc",
    "resource": {
      "resourceType": "Condition",
      "meta": {
        "profile": [ "https://www.netzwerk-universitaetsmedizin.de/fhir/StructureDefinition/chronic-lung-diseases" ]
      },
      "identifier": [ {
        "system": "https://mein.krankenhaus.de/fhir/NamingSystem/conditionId",
        "value": "27fad3808787b10672b0018e981440e6f9612eabedf0215884b9d69730fa1c00"
      } ],
      "clinicalStatus": {
        "coding": [ {
          "system": "http://terminology.hl7.org/CodeSystem/condition-clinical",
          "code": "active",
          "display": "Active"
        } ]
      },
      "verificationStatus": {
        "coding": [ {
          "system": "http://terminology.hl7.org/CodeSystem/condition-ver-status",
          "code": "confirmed",
          "display": "Confirmed"
        }, {
          "system": "http://snomed.info/sct",
          "code": "410605003",
          "display": "Confirmed present (qualifier value)"
        } ]
      },
      "category": [ {
        "coding": [ {
          "system": "http://snomed.info/sct",
          "code": "418112009",
          "display": "Pulmonary medicine (qualifier value)"
        } ]
      } ],
      "code": {
        "coding": [ {
          "system": "http://fhir.de/CodeSystem/dimdi/icd-10-gm",
          "version": "2021",
          "code": "E84.9"
        }, {
          "system": "http://snomed.info/sct",
          "code": "190905008"
        } ]
      },
      "subject": {
        "reference": "Patient/f6ee5f3017cc35438708b106cdd30e8dae87cf64c8378e9ceb95ce94abf776ad"
      },
      "encounter": {
        "reference": "Encounter/3d40a0eefcd3dcd2f282e1c696adf36a547ac80cb03017279011ea4f66e809c5"
      },
      "_recordedDate": {
        "extension": [ {
          "url": "http://hl7.org/fhir/StructureDefinition/data-absent-reason",
          "valueCode": "unknown"
        } ]
      }
    },
    "request": {
      "method": "POST",
      "url": "Condition",
      "ifNoneExist": "identifier=https://mein.krankenhaus.de/fhir/NamingSystem/conditionId|0e4d8bfe85f765f0270cf97639b0d2e964ba82f1afc6c14494007bed5df11fdc"
    }
  }, {
    "fullUrl": "Condition/374262b0c3f99ef0b0fbd177e4b058499ffecb21a02f6e1dacf258aba3294e45",
    "resource": {
      "resourceType": "Condition",
      "meta": {
        "profile": [ "https://www.netzwerk-universitaetsmedizin.de/fhir/StructureDefinition/chronic-lung-diseases" ]
      },
      "identifier": [ {
        "system": "https://mein.krankenhaus.de/fhir/NamingSystem/conditionId",
        "value": "19bc6c3ee8b1a645e32f2833af87e97d690b5c8ce90e1b6e623bc299cab96095"
      } ],
      "verificationStatus": {
        "coding": [ {
          "system": "http://terminology.hl7.org/CodeSystem/condition-ver-status",
          "code": "refuted",
          "display": "Refuted"
        }, {
          "system": "http://snomed.info/sct",
          "code": "410594000",
          "display": "Definitely NOT present (qualifier value)"
        } ]
      },
      "category": [ {
        "coding": [ {
          "system": "http://snomed.info/sct",
          "code": "418112009",
          "display": "Pulmonary medicine (qualifier value)"
        } ]
      } ],
      "code": {
        "coding": [ {
          "system": "http://snomed.info/sct",
          "code": "106048009"
        } ]
      },
      "subject": {
        "reference": "Patient/f6ee5f3017cc35438708b106cdd30e8dae87cf64c8378e9ceb95ce94abf776ad"
      },
      "encounter": {
        "reference": "Encounter/3d40a0eefcd3dcd2f282e1c696adf36a547ac80cb03017279011ea4f66e809c5"
      },
      "_recordedDate": {
        "extension": [ {
          "url": "http://hl7.org/fhir/StructureDefinition/data-absent-reason",
          "valueCode": "unknown"
        } ]
      }
    },
    "request": {
      "method": "POST",
      "url": "Condition",
      "ifNoneExist": "identifier=https://mein.krankenhaus.de/fhir/NamingSystem/conditionId|374262b0c3f99ef0b0fbd177e4b058499ffecb21a02f6e1dacf258aba3294e45"
    }
  }, {
    "fullUrl": "Condition/b7d19e397edba17191f2fe71b3108c0f92995e0179f89daf2afcf2bf6b8cd800",
    "resource": {
      "resourceType": "Condition",
      "meta": {
        "profile": [ "https://www.netzwerk-universitaetsmedizin.de/fhir/StructureDefinition/chronic-liver-diseases" ]
      },
      "modifierExtension": [ {
        "url": "https://www.netzwerk-universitaetsmedizin.de/fhir/StructureDefinition/uncertainty-of-presence",
        "valueCodeableConcept": {
          "coding": [ {
            "system": "http://snomed.info/sct",
            "code": "261665006",
            "display": "Unknown (qualifier value)"
          } ],
          "text": "Presence unknown."
        }
      } ],
      "identifier": [ {
        "system": "https://mein.krankenhaus.de/fhir/NamingSystem/conditionId",
        "value": "f139c038e61e1a11b410a602d6a525114115f8ddd8343cedbfe0b5ecf364e853"
      } ],
      "category": [ {
        "coding": [ {
          "system": "http://snomed.info/sct",
          "code": "408472002",
          "display": "Hepatology (qualifier value)"
        } ]
      } ],
      "code": {
        "coding": [ {
          "system": "http://fhir.de/CodeSystem/dimdi/icd-10-gm",
          "version": "2021",
          "code": "K76.0"
        }, {
          "system": "http://snomed.info/sct",
          "code": "197321007"
        } ]
      },
      "subject": {
        "reference": "Patient/f6ee5f3017cc35438708b106cdd30e8dae87cf64c8378e9ceb95ce94abf776ad"
      },
      "encounter": {
        "reference": "Encounter/3d40a0eefcd3dcd2f282e1c696adf36a547ac80cb03017279011ea4f66e809c5"
      },
      "_recordedDate": {
        "extension": [ {
          "url": "http://hl7.org/fhir/StructureDefinition/data-absent-reason",
          "valueCode": "unknown"
        } ]
      }
    },
    "request": {
      "method": "POST",
      "url": "Condition",
      "ifNoneExist": "identifier=https://mein.krankenhaus.de/fhir/NamingSystem/conditionId|b7d19e397edba17191f2fe71b3108c0f92995e0179f89daf2afcf2bf6b8cd800"
    }
  }, {
    "fullUrl": "Condition/30b7a5c52c0a1637bf7c52895090000bea40796a436388a30f3cd55898884683",
    "resource": {
      "resourceType": "Condition",
      "meta": {
        "profile": [ "https://www.netzwerk-universitaetsmedizin.de/fhir/StructureDefinition/chronic-liver-diseases" ]
      },
      "identifier": [ {
        "system": "https://mein.krankenhaus.de/fhir/NamingSystem/conditionId",
        "value": "f3289bf9584a323ff7118730402e01407fc905646b0008ebcb01a2c65ebeb477"
      } ],
      "clinicalStatus": {
        "coding": [ {
          "system": "http://terminology.hl7.org/CodeSystem/condition-clinical",
          "code": "active",
          "display": "Active"
        } ]
      },
      "verificationStatus": {
        "coding": [ {
          "system": "http://terminology.hl7.org/CodeSystem/condition-ver-status",
          "code": "confirmed",
          "display": "Confirmed"
        }, {
          "system": "http://snomed.info/sct",
          "code": "410605003",
          "display": "Confirmed present (qualifier value)"
        } ]
      },
      "category": [ {
        "coding": [ {
          "system": "http://snomed.info/sct",
          "code": "408472002",
          "display": "Hepatology (qualifier value)"
        } ]
      } ],
      "code": {
        "coding": [ {
          "system": "http://fhir.de/CodeSystem/dimdi/icd-10-gm",
          "version": "2021",
          "code": "B18.9"
        }, {
          "system": "http://snomed.info/sct",
          "code": "10295004"
        } ]
      },
      "subject": {
        "reference": "Patient/f6ee5f3017cc35438708b106cdd30e8dae87cf64c8378e9ceb95ce94abf776ad"
      },
      "encounter": {
        "reference": "Encounter/3d40a0eefcd3dcd2f282e1c696adf36a547ac80cb03017279011ea4f66e809c5"
      },
      "_recordedDate": {
        "extension": [ {
          "url": "http://hl7.org/fhir/StructureDefinition/data-absent-reason",
          "valueCode": "unknown"
        } ]
      }
    },
    "request": {
      "method": "POST",
      "url": "Condition",
      "ifNoneExist": "identifier=https://mein.krankenhaus.de/fhir/NamingSystem/conditionId|30b7a5c52c0a1637bf7c52895090000bea40796a436388a30f3cd55898884683"
    }
  }, {
    "fullUrl": "Condition/59c948dffe7218ebf68465b035105616ba257ab0de144be0aead4e974c8e4367",
    "resource": {
      "resourceType": "Condition",
      "meta": {
        "profile": [ "https://www.netzwerk-universitaetsmedizin.de/fhir/StructureDefinition/chronic-liver-diseases" ]
      },
      "identifier": [ {
        "system": "https://mein.krankenhaus.de/fhir/NamingSystem/conditionId",
        "value": "609b22a3a4571f14153ba943cd410bf909cc9a59bf4e30e2eee38f4f2598772e"
      } ],
      "verificationStatus": {
        "coding": [ {
          "system": "http://terminology.hl7.org/CodeSystem/condition-ver-status",
          "code": "refuted",
          "display": "Refuted"
        }, {
          "system": "http://snomed.info/sct",
          "code": "410594000",
          "display": "Definitely NOT present (qualifier value)"
        } ]
      },
      "category": [ {
        "coding": [ {
          "system": "http://snomed.info/sct",
          "code": "408472002",
          "display": "Hepatology (qualifier value)"
        } ]
      } ],
      "code": {
        "coding": [ {
          "system": "http://snomed.info/sct",
          "code": "235890007"
        } ]
      },
      "subject": {
        "reference": "Patient/f6ee5f3017cc35438708b106cdd30e8dae87cf64c8378e9ceb95ce94abf776ad"
      },
      "encounter": {
        "reference": "Encounter/3d40a0eefcd3dcd2f282e1c696adf36a547ac80cb03017279011ea4f66e809c5"
      },
      "_recordedDate": {
        "extension": [ {
          "url": "http://hl7.org/fhir/StructureDefinition/data-absent-reason",
          "valueCode": "unknown"
        } ]
      }
    },
    "request": {
      "method": "POST",
      "url": "Condition",
      "ifNoneExist": "identifier=https://mein.krankenhaus.de/fhir/NamingSystem/conditionId|59c948dffe7218ebf68465b035105616ba257ab0de144be0aead4e974c8e4367"
    }
  }, {
    "fullUrl": "Condition/9123966a217df3a9db0133d2c78759991a2494fbea192a96c1fba85941b8697b",
    "resource": {
      "resourceType": "Condition",
      "meta": {
        "profile": [ "https://www.netzwerk-universitaetsmedizin.de/fhir/StructureDefinition/chronic-liver-diseases" ]
      },
      "identifier": [ {
        "system": "https://mein.krankenhaus.de/fhir/NamingSystem/conditionId",
        "value": "5fb4c645a6e2b870d3800ab272aa4ce7f5fde6d41e5d9effb639d5b69c58c453"
      } ],
      "verificationStatus": {
        "coding": [ {
          "system": "http://terminology.hl7.org/CodeSystem/condition-ver-status",
          "code": "refuted",
          "display": "Refuted"
        }, {
          "system": "http://snomed.info/sct",
          "code": "410594000",
          "display": "Definitely NOT present (qualifier value)"
        } ]
      },
      "category": [ {
        "coding": [ {
          "system": "http://snomed.info/sct",
          "code": "408472002",
          "display": "Hepatology (qualifier value)"
        } ]
      } ],
      "code": {
        "coding": [ {
          "system": "http://fhir.de/CodeSystem/dimdi/icd-10-gm",
          "version": "2021",
          "code": "K76.9"
        }, {
          "system": "http://snomed.info/sct",
          "code": "328383001"
        } ]
      },
      "subject": {
        "reference": "Patient/f6ee5f3017cc35438708b106cdd30e8dae87cf64c8378e9ceb95ce94abf776ad"
      },
      "encounter": {
        "reference": "Encounter/3d40a0eefcd3dcd2f282e1c696adf36a547ac80cb03017279011ea4f66e809c5"
      },
      "_recordedDate": {
        "extension": [ {
          "url": "http://hl7.org/fhir/StructureDefinition/data-absent-reason",
          "valueCode": "unknown"
        } ]
      }
    },
    "request": {
      "method": "POST",
      "url": "Condition",
      "ifNoneExist": "identifier=https://mein.krankenhaus.de/fhir/NamingSystem/conditionId|9123966a217df3a9db0133d2c78759991a2494fbea192a96c1fba85941b8697b"
    }
  }, {
    "fullUrl": "Condition/4e6bf58de7a240cf752a287f7cf1b30d93932d3abf6c87009881d6b0e3385508",
    "resource": {
      "resourceType": "Condition",
      "meta": {
        "profile": [ "https://www.netzwerk-universitaetsmedizin.de/fhir/StructureDefinition/diabetes-mellitus" ]
      },
      "identifier": [ {
        "system": "https://mein.krankenhaus.de/fhir/NamingSystem/conditionId",
        "value": "bb94b7fc985088d001aaec36e6bd78b2c2e774ff8b9b2dddd3d184d65c32cc6d"
      } ],
      "verificationStatus": {
        "coding": [ {
          "system": "http://terminology.hl7.org/CodeSystem/condition-ver-status",
          "code": "refuted",
          "display": "Refuted"
        }, {
          "system": "http://snomed.info/sct",
          "code": "410594000",
          "display": "Definitely NOT present (qualifier value)"
        } ]
      },
      "category": [ {
        "coding": [ {
          "system": "http://snomed.info/sct",
          "code": "408475000",
          "display": "Diabetic medicine (qualifier value)"
        } ]
      } ],
      "code": {
        "coding": [ {
          "system": "http://fhir.de/CodeSystem/dimdi/icd-10-gm",
          "version": "2021",
          "code": "E14"
        }, {
          "system": "http://snomed.info/sct",
          "code": "73211009"
        } ]
      },
      "subject": {
        "reference": "Patient/f6ee5f3017cc35438708b106cdd30e8dae87cf64c8378e9ceb95ce94abf776ad"
      },
      "encounter": {
        "reference": "Encounter/3d40a0eefcd3dcd2f282e1c696adf36a547ac80cb03017279011ea4f66e809c5"
      },
      "_recordedDate": {
        "extension": [ {
          "url": "http://hl7.org/fhir/StructureDefinition/data-absent-reason",
          "valueCode": "unknown"
        } ]
      }
    },
    "request": {
      "method": "POST",
      "url": "Condition",
      "ifNoneExist": "identifier=https://mein.krankenhaus.de/fhir/NamingSystem/conditionId|4e6bf58de7a240cf752a287f7cf1b30d93932d3abf6c87009881d6b0e3385508"
    }
  }, {
    "fullUrl": "Condition/911eb794cac279a6353a43cce14f42f696c70c8cc6f9b5aa2e3c87cf4070e557",
    "resource": {
      "resourceType": "Condition",
      "meta": {
        "profile": [ "https://www.netzwerk-universitaetsmedizin.de/fhir/StructureDefinition/chronic-kidney-diseases" ]
      },
      "identifier": [ {
        "system": "https://mein.krankenhaus.de/fhir/NamingSystem/conditionId",
        "value": "61eab2969bd9eb434f03b8f5e6b0e9ac2b194488b20133394dbf079915b2c787"
      } ],
      "verificationStatus": {
        "coding": [ {
          "system": "http://terminology.hl7.org/CodeSystem/condition-ver-status",
          "code": "refuted",
          "display": "Refuted"
        }, {
          "system": "http://snomed.info/sct",
          "code": "410594000",
          "display": "Definitely NOT present (qualifier value)"
        } ]
      },
      "category": [ {
        "coding": [ {
          "system": "http://snomed.info/sct",
          "code": "394589003",
          "display": "Nephrology (qualifier value)"
        } ]
      } ],
      "code": {
        "coding": [ {
          "system": "http://fhir.de/CodeSystem/dimdi/icd-10-gm",
          "version": "2021",
          "code": "N18.9"
        }, {
          "system": "http://snomed.info/sct",
          "code": "709044004"
        } ]
      },
      "subject": {
        "reference": "Patient/f6ee5f3017cc35438708b106cdd30e8dae87cf64c8378e9ceb95ce94abf776ad"
      },
      "encounter": {
        "reference": "Encounter/3d40a0eefcd3dcd2f282e1c696adf36a547ac80cb03017279011ea4f66e809c5"
      },
      "_recordedDate": {
        "extension": [ {
          "url": "http://hl7.org/fhir/StructureDefinition/data-absent-reason",
          "valueCode": "unknown"
        } ]
      }
    },
    "request": {
      "method": "POST",
      "url": "Condition",
      "ifNoneExist": "identifier=https://mein.krankenhaus.de/fhir/NamingSystem/conditionId|911eb794cac279a6353a43cce14f42f696c70c8cc6f9b5aa2e3c87cf4070e557"
    }
  }, {
    "fullUrl": "Condition/cbce00508af69abfad096a2acb51c0fbaacdfd8a1e312fcfa74b9e12a94b92b3",
    "resource": {
      "resourceType": "Condition",
      "meta": {
        "profile": [ "https://www.netzwerk-universitaetsmedizin.de/fhir/StructureDefinition/gastrointestinal-ulcers" ]
      },
      "identifier": [ {
        "system": "https://mein.krankenhaus.de/fhir/NamingSystem/conditionId",
        "value": "25509d113de8be121f2597a06750346b7b7ddd3b1aec14a4a78984345aaca510"
      } ],
      "clinicalStatus": {
        "coding": [ {
          "system": "http://terminology.hl7.org/CodeSystem/condition-clinical",
          "code": "active",
          "display": "Active"
        } ]
      },
      "verificationStatus": {
        "coding": [ {
          "system": "http://terminology.hl7.org/CodeSystem/condition-ver-status",
          "code": "confirmed",
          "display": "Confirmed"
        }, {
          "system": "http://snomed.info/sct",
          "code": "410605003",
          "display": "Confirmed present (qualifier value)"
        } ]
      },
      "category": [ {
        "coding": [ {
          "system": "http://snomed.info/sct",
          "code": "394584008",
          "display": "Gastroenterology (qualifier value))"
        } ]
      } ],
      "code": {
        "coding": [ {
          "system": "http://fhir.de/CodeSystem/dimdi/icd-10-gm",
          "version": "2021",
          "code": "K28"
        }, {
          "system": "http://snomed.info/sct",
          "code": "40845000"
        } ]
      },
      "subject": {
        "reference": "Patient/f6ee5f3017cc35438708b106cdd30e8dae87cf64c8378e9ceb95ce94abf776ad"
      },
      "encounter": {
        "reference": "Encounter/3d40a0eefcd3dcd2f282e1c696adf36a547ac80cb03017279011ea4f66e809c5"
      },
      "_recordedDate": {
        "extension": [ {
          "url": "http://hl7.org/fhir/StructureDefinition/data-absent-reason",
          "valueCode": "unknown"
        } ]
      }
    },
    "request": {
      "method": "POST",
      "url": "Condition",
      "ifNoneExist": "identifier=https://mein.krankenhaus.de/fhir/NamingSystem/conditionId|cbce00508af69abfad096a2acb51c0fbaacdfd8a1e312fcfa74b9e12a94b92b3"
    }
  }, {
    "fullUrl": "Observation/58711eadba93de7c85ebdfe0d8aab3441acd47b3d44afcbfc6cd157eb0cc09ae",
    "resource": {
      "resourceType": "Observation",
      "meta": {
        "profile": [ "https://www.netzwerk-universitaetsmedizin.de/fhir/StructureDefinition/smoking-status" ]
      },
      "identifier": [ {
        "system": "https://mein.krankenhaus.de/fhir/NamingSystem/observationId",
        "value": "ded44dd434cebba1e726c3271f49e35d52c64abd6193758519bf19ad12b8f1c5"
      } ],
      "status": "final",
      "category": [ {
        "coding": [ {
          "system": "http://terminology.hl7.org/CodeSystem/observation-category",
          "code": "social-history",
          "display": "Social History"
        } ]
      } ],
      "code": {
        "coding": [ {
          "system": "http://loinc.org",
          "code": "72166-2"
        } ]
      },
      "subject": {
        "reference": "Patient/f6ee5f3017cc35438708b106cdd30e8dae87cf64c8378e9ceb95ce94abf776ad"
      },
      "encounter": {
        "reference": "Encounter/3d40a0eefcd3dcd2f282e1c696adf36a547ac80cb03017279011ea4f66e809c5"
      },
      "_effectiveDateTime": {
        "extension": [ {
          "url": "http://hl7.org/fhir/StructureDefinition/data-absent-reason",
          "valueCode": "unknown"
        } ]
      },
      "valueCodeableConcept": {
        "coding": [ {
          "system": "http://loinc.org",
          "code": "LA18976-3"
        } ]
      }
    },
    "request": {
      "method": "POST",
      "url": "Observation",
      "ifNoneExist": "identifier=https://mein.krankenhaus.de/fhir/NamingSystem/observationId|58711eadba93de7c85ebdfe0d8aab3441acd47b3d44afcbfc6cd157eb0cc09ae"
    }
  }, {
    "fullUrl": "Procedure/d2dc1028ad811662b9dfd4f9107edacd06789ed75e940ad1c2bcacd9727c2e1d",
    "resource": {
      "resourceType": "Procedure",
      "meta": {
        "profile": [ "https://www.netzwerk-universitaetsmedizin.de/fhir/StructureDefinition/respiratory-therapies" ]
      },
      "identifier": [ {
        "system": "https://mein.krankenhaus.de/fhir/NamingSystem/procedureId",
        "value": "cec77a449c7eb2c0355e1d24d5413f6dc4e0b72040bbd31c5b8a2ef82b64cfb6"
      } ],
      "status": "in-progress",
      "category": {
        "coding": [ {
          "system": "http://snomed.info/sct",
          "code": "277132007",
          "display": "Therapeutic procedure (procedure)"
        } ]
      },
      "code": {
        "coding": [ {
          "system": "http://snomed.info/sct",
          "code": "53950000"
        } ]
      },
      "subject": {
        "reference": "Patient/f6ee5f3017cc35438708b106cdd30e8dae87cf64c8378e9ceb95ce94abf776ad"
      },
      "encounter": {
        "reference": "Encounter/3d40a0eefcd3dcd2f282e1c696adf36a547ac80cb03017279011ea4f66e809c5"
      },
      "_performedDateTime": {
        "extension": [ {
          "url": "http://hl7.org/fhir/StructureDefinition/data-absent-reason",
          "valueCode": "unknown"
        } ]
      }
    },
    "request": {
      "method": "POST",
      "url": "Procedure",
      "ifNoneExist": "identifier=https://mein.krankenhaus.de/fhir/NamingSystem/procedureId|d2dc1028ad811662b9dfd4f9107edacd06789ed75e940ad1c2bcacd9727c2e1d"
    }
  }, {
    "fullUrl": "Immunization/c593965048f7a27be27b9b55163bd89d556b02bf49ecf5887d1654dcdef04b46",
    "resource": {
      "resourceType": "Immunization",
      "meta": {
        "profile": [ "https://www.netzwerk-universitaetsmedizin.de/fhir/StructureDefinition/immunization" ]
      },
      "identifier": [ {
        "system": "https://mein.krankenhaus.de/fhir/NamingSystem/immunizationId",
        "value": "9effac83f50595c687a7e4e40a6d230816960ed75873fd0abd957bd1ea983e7b"
      } ],
      "status": "completed",
      "vaccineCode": {
        "coding": [ {
          "system": "http://snomed.info/sct",
          "code": "836377006"
        } ]
      },
      "patient": {
        "reference": "Patient/f6ee5f3017cc35438708b106cdd30e8dae87cf64c8378e9ceb95ce94abf776ad"
      },
      "encounter": {
        "reference": "Encounter/3d40a0eefcd3dcd2f282e1c696adf36a547ac80cb03017279011ea4f66e809c5"
      },
      "occurrenceDateTime": "2020-07-29",
      "protocolApplied": [ {
        "targetDisease": [ {
          "coding": [ {
            "system": "http://snomed.info/sct",
            "code": "6142004"
          } ]
        } ],
        "_doseNumberString": {
          "extension": [ {
            "url": "http://hl7.org/fhir/StructureDefinition/data-absent-reason",
            "valueCode": "unknown"
          } ]
        }
      } ]
    },
    "request": {
      "method": "POST",
      "url": "Immunization",
      "ifNoneExist": "identifier=https://mein.krankenhaus.de/fhir/NamingSystem/immunizationId|c593965048f7a27be27b9b55163bd89d556b02bf49ecf5887d1654dcdef04b46"
    }
  }, {
    "fullUrl": "Immunization/84a2dab040acd1a4f83c148124630cbea9378dded8100af3ee80f51f19f359e7",
    "resource": {
      "resourceType": "Immunization",
      "meta": {
        "profile": [ "https://www.netzwerk-universitaetsmedizin.de/fhir/StructureDefinition/immunization" ]
      },
      "identifier": [ {
        "system": "https://mein.krankenhaus.de/fhir/NamingSystem/immunizationId",
        "value": "01096b33d478dc998bbfac2fbcab1f6c11dfcb7d725d881c765de8c051501104"
      } ],
      "status": "completed",
      "vaccineCode": {
        "coding": [ {
          "system": "http://snomed.info/sct",
          "code": "836398006"
        } ]
      },
      "patient": {
        "reference": "Patient/f6ee5f3017cc35438708b106cdd30e8dae87cf64c8378e9ceb95ce94abf776ad"
      },
      "encounter": {
        "reference": "Encounter/3d40a0eefcd3dcd2f282e1c696adf36a547ac80cb03017279011ea4f66e809c5"
      },
      "occurrenceDateTime": "2020-04-02",
      "protocolApplied": [ {
        "targetDisease": [ {
          "coding": [ {
            "system": "http://snomed.info/sct",
            "code": "16814004"
          } ]
        } ],
        "_doseNumberString": {
          "extension": [ {
            "url": "http://hl7.org/fhir/StructureDefinition/data-absent-reason",
            "valueCode": "unknown"
          } ]
        }
      } ]
    },
    "request": {
      "method": "POST",
      "url": "Immunization",
      "ifNoneExist": "identifier=https://mein.krankenhaus.de/fhir/NamingSystem/immunizationId|84a2dab040acd1a4f83c148124630cbea9378dded8100af3ee80f51f19f359e7"
    }
  }, {
    "fullUrl": "Immunization/f30dbdf681081bad0ae0051c125ef1d2ee1036623984cfb25a3aa452bc168d9f",
    "resource": {
      "resourceType": "Immunization",
      "meta": {
        "profile": [ "https://www.netzwerk-universitaetsmedizin.de/fhir/StructureDefinition/immunization" ]
      },
      "identifier": [ {
        "system": "https://mein.krankenhaus.de/fhir/NamingSystem/immunizationId",
        "value": "7ea67e530c98172eecf5a321625c8e833d41a972a4d85bfd0e29ed4498f658e7"
      } ],
      "status": "completed",
      "vaccineCode": {
        "coding": [ {
          "system": "http://snomed.info/sct",
          "code": "836402002"
        } ]
      },
      "patient": {
        "reference": "Patient/f6ee5f3017cc35438708b106cdd30e8dae87cf64c8378e9ceb95ce94abf776ad"
      },
      "encounter": {
        "reference": "Encounter/3d40a0eefcd3dcd2f282e1c696adf36a547ac80cb03017279011ea4f66e809c5"
      },
      "occurrenceDateTime": "2020-12-13",
      "protocolApplied": [ {
        "targetDisease": [ {
          "coding": [ {
            "system": "http://snomed.info/sct",
            "code": "56717001"
          } ]
        } ],
        "_doseNumberString": {
          "extension": [ {
            "url": "http://hl7.org/fhir/StructureDefinition/data-absent-reason",
            "valueCode": "unknown"
          } ]
        }
      } ]
    },
    "request": {
      "method": "POST",
      "url": "Immunization",
      "ifNoneExist": "identifier=https://mein.krankenhaus.de/fhir/NamingSystem/immunizationId|f30dbdf681081bad0ae0051c125ef1d2ee1036623984cfb25a3aa452bc168d9f"
    }
  }, {
    "fullUrl": "Immunization/bdc770718fea859986926cfe5aa0b573e112cfa690b6c968e12cabbfb0896c77",
    "resource": {
      "resourceType": "Immunization",
      "meta": {
        "profile": [ "https://www.netzwerk-universitaetsmedizin.de/fhir/StructureDefinition/immunization" ]
      },
      "identifier": [ {
        "system": "https://mein.krankenhaus.de/fhir/NamingSystem/immunizationId",
        "value": "9953d649e3cbe675036163d3604ddc046c630c1f19121bcb1a4e5201186b6af4"
      } ],
      "status": "completed",
      "vaccineCode": {
        "coding": [ {
          "system": "http://hl7.org/fhir/uv/ips/CodeSystem/absent-unknown-uv-ips",
          "code": "no-known-immunizations",
          "display": "vaccineCode unknown"
        } ]
      },
      "patient": {
        "reference": "Patient/f6ee5f3017cc35438708b106cdd30e8dae87cf64c8378e9ceb95ce94abf776ad"
      },
      "encounter": {
        "reference": "Encounter/3d40a0eefcd3dcd2f282e1c696adf36a547ac80cb03017279011ea4f66e809c5"
      },
      "occurrenceDateTime": "2020-09-02",
      "protocolApplied": [ {
        "targetDisease": [ {
          "coding": [ {
            "system": "http://snomed.info/sct",
            "code": "64572001"
          } ],
          "text": "<Freitext>"
        } ],
        "_doseNumberString": {
          "extension": [ {
            "url": "http://hl7.org/fhir/StructureDefinition/data-absent-reason",
            "valueCode": "unknown"
          } ]
        }
      } ]
    },
    "request": {
      "method": "POST",
      "url": "Immunization",
      "ifNoneExist": "identifier=https://mein.krankenhaus.de/fhir/NamingSystem/immunizationId|bdc770718fea859986926cfe5aa0b573e112cfa690b6c968e12cabbfb0896c77"
    }
  }, {
    "fullUrl": "Consent/6e785b00a8f2559db39c5a4d7224ee7caf32c6818c07d87c04f7aaa1506aff54",
    "resource": {
      "resourceType": "Consent",
      "meta": {
        "profile": [ "https://www.netzwerk-universitaetsmedizin.de/fhir/StructureDefinition/do-not-resuscitate-order" ]
      },
      "identifier": [ {
        "system": "https://mein.krankenhaus.de/fhir/NamingSystem/consentId",
        "value": "1799839f2c561d8e0a14d6a1349b0fb391ba753cfe6690be0573a0b1b3ebc6d6"
      } ],
      "status": "active",
      "scope": {
        "coding": [ {
          "system": "http://terminology.hl7.org/CodeSystem/consentscope",
          "code": "adr",
          "display": "Advanced Care Directive"
        } ]
      },
      "category": [ {
        "coding": [ {
          "system": "http://terminology.hl7.org/CodeSystem/consentcategorycodes",
          "code": "dnr",
          "display": "Do Not Resuscitate"
        } ]
      } ],
      "patient": {
        "reference": "Patient/f6ee5f3017cc35438708b106cdd30e8dae87cf64c8378e9ceb95ce94abf776ad"
      },
      "policy": [ {
        "uri": "https://www.aerzteblatt.de/archiv/65440/DNR-Anordnungen-Das-fehlende-Bindeglied"
      } ],
      "provision": {
        "code": [ {
          "coding": [ {
            "system": "http://snomed.info/sct",
            "code": "261665006"
          } ]
        } ]
      }
    },
    "request": {
      "method": "POST",
      "url": "Consent",
      "ifNoneExist": "identifier=https://mein.krankenhaus.de/fhir/NamingSystem/consentId|6e785b00a8f2559db39c5a4d7224ee7caf32c6818c07d87c04f7aaa1506aff54"
    }
  }, {
    "fullUrl": "Observation/e36cae06abca518f8a503332a49149e1074dafc72df8879de478d0326d15cf2b",
    "resource": {
      "resourceType": "Observation",
      "meta": {
        "profile": [ "https://www.netzwerk-universitaetsmedizin.de/fhir/StructureDefinition/sex-assigned-at-birth" ]
      },
      "identifier": [ {
        "system": "https://mein.krankenhaus.de/fhir/NamingSystem/observationId",
        "value": "2f1dd8229380e8db5d564005dd06a1d5ffeba86a1ba5f323a427d032d365da3d"
      } ],
      "status": "final",
      "category": [ {
        "coding": [ {
          "system": "http://terminology.hl7.org/CodeSystem/observation-category",
          "code": "social-history",
          "display": "Social History"
        } ]
      } ],
      "code": {
        "coding": [ {
          "system": "http://loinc.org",
          "code": "76689-9"
        } ]
      },
      "subject": {
        "reference": "Patient/f6ee5f3017cc35438708b106cdd30e8dae87cf64c8378e9ceb95ce94abf776ad"
      },
      "encounter": {
        "reference": "Encounter/3d40a0eefcd3dcd2f282e1c696adf36a547ac80cb03017279011ea4f66e809c5"
      },
      "_effectiveDateTime": {
        "extension": [ {
          "url": "http://hl7.org/fhir/StructureDefinition/data-absent-reason",
          "valueCode": "unknown"
        } ]
      },
      "valueCodeableConcept": {
        "coding": [ {
          "system": "http://fhir.de/CodeSystem/gender-amtlich-de",
          "code": "X"
        } ]
      }
    },
    "request": {
      "method": "POST",
      "url": "Observation",
      "ifNoneExist": "identifier=https://mein.krankenhaus.de/fhir/NamingSystem/observationId|e36cae06abca518f8a503332a49149e1074dafc72df8879de478d0326d15cf2b"
    }
  }, {
    "fullUrl": "Observation/955dc0795164ee9b6a4acb6685891d135ac5c0dec8bb3566f7d4f6da0ce9b782",
    "resource": {
      "resourceType": "Observation",
      "meta": {
        "profile": [ "https://www.netzwerk-universitaetsmedizin.de/fhir/StructureDefinition/frailty-score" ]
      },
      "identifier": [ {
        "type": {
          "coding": [ {
            "system": "http://terminology.hl7.org/CodeSystem/v2-0203",
            "code": "OBI",
            "display": "Observation Instance Identifier"
          } ]
        },
        "system": "https://mein.krankenhaus.de/fhir/NamingSystem/observationId",
        "value": "24aa3563c90874b7e7a8f30842c405dec834833ff8490e4cd4a7139674c54c99",
        "assigner": {
          "reference": "Organization/3a4f3433bce81181bad2d8e0b8fafccf7dc800bc06f29be73dcb38b750a48f9a"
        }
      } ],
      "status": "final",
      "category": [ {
        "coding": [ {
          "system": "http://terminology.hl7.org/CodeSystem/observation-category",
          "code": "survey",
          "display": "Survey"
        } ]
      } ],
      "code": {
        "coding": [ {
          "system": "http://snomed.info/sct",
          "code": "763264000"
        } ],
        "text": "Frailty Scale Score"
      },
      "subject": {
        "reference": "Patient/f6ee5f3017cc35438708b106cdd30e8dae87cf64c8378e9ceb95ce94abf776ad"
      },
      "encounter": {
        "reference": "Encounter/3d40a0eefcd3dcd2f282e1c696adf36a547ac80cb03017279011ea4f66e809c5"
      },
      "_effectiveDateTime": {
        "extension": [ {
          "url": "http://hl7.org/fhir/StructureDefinition/data-absent-reason",
          "valueCode": "unknown"
        } ]
      },
      "valueCodeableConcept": {
        "coding": [ {
          "system": "https://www.netzwerk-universitaetsmedizin.de/fhir/CodeSystem/frailty-score",
          "code": "6"
        } ]
      },
      "method": {
        "coding": [ {
          "system": "http://snomed.info/sct",
          "code": "445414007",
          "display": "Canadian Study of Health and Aging clinical frailty scale"
        } ]
      }
    },
    "request": {
      "method": "POST",
      "url": "Observation",
      "ifNoneExist": "identifier=https://mein.krankenhaus.de/fhir/NamingSystem/observationId|955dc0795164ee9b6a4acb6685891d135ac5c0dec8bb3566f7d4f6da0ce9b782"
    }
  }, {
    "fullUrl": "Observation/6c217b72b108d1cfe0408167cbc5bc17863856ab894b90604001f235abf7a4ea",
    "resource": {
      "resourceType": "Observation",
      "meta": {
        "profile": [ "https://www.netzwerk-universitaetsmedizin.de/fhir/StructureDefinition/body-height" ]
      },
      "identifier": [ {
        "type": {
          "coding": [ {
            "system": "http://terminology.hl7.org/CodeSystem/v2-0203",
            "code": "OBI",
            "display": "Observation Instance Identifier"
          } ]
        },
        "system": "https://mein.krankenhaus.de/fhir/NamingSystem/observationId",
        "value": "906a378dc7edd88fec9d4c5dc2638648cb41006935477cea342a3fc78bd2228c",
        "assigner": {
          "reference": "Organization/3a4f3433bce81181bad2d8e0b8fafccf7dc800bc06f29be73dcb38b750a48f9a"
        }
      } ],
      "status": "final",
      "category": [ {
        "coding": [ {
          "system": "http://terminology.hl7.org/CodeSystem/observation-category",
          "code": "vital-signs",
          "display": "Vital Signs"
        } ]
      } ],
      "code": {
        "coding": [ {
          "system": "http://loinc.org",
          "code": "8302-2"
        }, {
          "system": "http://snomed.info/sct",
          "code": "50373000"
        } ],
        "text": "Body height"
      },
      "subject": {
        "reference": "Patient/f6ee5f3017cc35438708b106cdd30e8dae87cf64c8378e9ceb95ce94abf776ad"
      },
      "encounter": {
        "reference": "Encounter/3d40a0eefcd3dcd2f282e1c696adf36a547ac80cb03017279011ea4f66e809c5"
      },
      "_effectiveDateTime": {
        "extension": [ {
          "url": "http://hl7.org/fhir/StructureDefinition/data-absent-reason",
          "valueCode": "unknown"
        } ]
      },
      "valueQuantity": {
        "value": 211,
        "unit": "centimeter",
        "system": "http://unitsofmeasure.org",
        "code": "cm"
      }
    },
    "request": {
      "method": "POST",
      "url": "Observation",
      "ifNoneExist": "identifier=https://mein.krankenhaus.de/fhir/NamingSystem/observationId|6c217b72b108d1cfe0408167cbc5bc17863856ab894b90604001f235abf7a4ea"
    }
  }, {
    "fullUrl": "Observation/04b27a5b50efb454448e0ad72c87d5b0c1e6ba4367c2527a637e8917a58c3dd0",
    "resource": {
      "resourceType": "Observation",
      "meta": {
        "profile": [ "https://www.netzwerk-universitaetsmedizin.de/fhir/StructureDefinition/known-exposure" ]
      },
      "identifier": [ {
        "type": {
          "coding": [ {
            "system": "http://terminology.hl7.org/CodeSystem/v2-0203",
            "code": "OBI",
            "display": "Observation Instance Identifier"
          } ]
        },
        "system": "https://mein.krankenhaus.de/fhir/NamingSystem/observationId",
        "value": "6e8fe47ac3283838dcd40d40e4443f4a107a9d44fdc8cbb19a62e6eecd742a35",
        "assigner": {
          "reference": "Organization/3a4f3433bce81181bad2d8e0b8fafccf7dc800bc06f29be73dcb38b750a48f9a"
        }
      } ],
      "status": "final",
      "category": [ {
        "coding": [ {
          "system": "http://terminology.hl7.org/CodeSystem/observation-category",
          "code": "social-history",
          "display": "Social History"
        } ]
      } ],
      "code": {
        "coding": [ {
          "system": "http://loinc.org",
          "code": "88636-6"
        } ],
        "text": "Known exposure"
      },
      "subject": {
        "reference": "Patient/f6ee5f3017cc35438708b106cdd30e8dae87cf64c8378e9ceb95ce94abf776ad"
      },
      "encounter": {
        "reference": "Encounter/3d40a0eefcd3dcd2f282e1c696adf36a547ac80cb03017279011ea4f66e809c5"
      },
      "_effectiveDateTime": {
        "extension": [ {
          "url": "http://hl7.org/fhir/StructureDefinition/data-absent-reason",
          "valueCode": "unknown"
        } ]
      },
      "valueCodeableConcept": {
        "coding": [ {
          "system": "http://snomed.info/sct",
          "code": "840546002"
        } ]
      }
    },
    "request": {
      "method": "POST",
      "url": "Observation",
      "ifNoneExist": "identifier=https://mein.krankenhaus.de/fhir/NamingSystem/observationId|04b27a5b50efb454448e0ad72c87d5b0c1e6ba4367c2527a637e8917a58c3dd0"
    }
  }, {
    "fullUrl": "Procedure/52980c77b728ca651db7da34ed553e7269472457825cd512fb0d6ff827afdf10",
    "resource": {
      "resourceType": "Procedure",
      "meta": {
        "profile": [ "https://www.netzwerk-universitaetsmedizin.de/fhir/StructureDefinition/dialysis" ]
      },
      "identifier": [ {
        "system": "https://mein.krankenhaus.de/fhir/NamingSystem/procedureId",
        "value": "3ade47d4870ee123c28782736a599ca7bf019e0d93a2ae94c849a82bf01920ba"
      } ],
      "status": "not-done",
      "category": {
        "coding": [ {
          "system": "http://snomed.info/sct",
          "code": "277132007",
          "display": "Therapeutic procedure (procedure)"
        } ]
      },
      "code": {
        "coding": [ {
          "system": "http://snomed.info/sct",
          "code": "108241001"
        } ],
        "text": "Dialysis"
      },
      "subject": {
        "reference": "Patient/f6ee5f3017cc35438708b106cdd30e8dae87cf64c8378e9ceb95ce94abf776ad"
      },
      "encounter": {
        "reference": "Encounter/3d40a0eefcd3dcd2f282e1c696adf36a547ac80cb03017279011ea4f66e809c5"
      },
      "_performedDateTime": {
        "extension": [ {
          "url": "http://hl7.org/fhir/StructureDefinition/data-absent-reason",
          "valueCode": "not-performed"
        } ]
      }
    },
    "request": {
      "method": "POST",
      "url": "Procedure",
      "ifNoneExist": "identifier=https://mein.krankenhaus.de/fhir/NamingSystem/procedureId|52980c77b728ca651db7da34ed553e7269472457825cd512fb0d6ff827afdf10"
    }
  }, {
    "fullUrl": "Procedure/472d70893cf6edd253b72b41559eb3f02a54a241472336beedf45834d8191f3f",
    "resource": {
      "resourceType": "Procedure",
      "meta": {
        "profile": [ "https://www.netzwerk-universitaetsmedizin.de/fhir/StructureDefinition/apheresis" ]
      },
      "identifier": [ {
        "system": "https://mein.krankenhaus.de/fhir/NamingSystem/procedureId",
        "value": "ae1c8b03fd08d626312bc956601a46476f9cdfdd7cb16679ffee160c1db09e9b"
      } ],
      "status": "unknown",
      "category": {
        "coding": [ {
          "system": "http://snomed.info/sct",
          "code": "277132007",
          "display": "Therapeutic procedure (procedure)"
        } ]
      },
      "code": {
        "coding": [ {
          "system": "http://snomed.info/sct",
          "code": "127788007"
        } ],
        "text": "Apheresis"
      },
      "subject": {
        "reference": "Patient/f6ee5f3017cc35438708b106cdd30e8dae87cf64c8378e9ceb95ce94abf776ad"
      },
      "encounter": {
        "reference": "Encounter/3d40a0eefcd3dcd2f282e1c696adf36a547ac80cb03017279011ea4f66e809c5"
      },
      "_performedDateTime": {
        "extension": [ {
          "url": "http://hl7.org/fhir/StructureDefinition/data-absent-reason",
          "valueCode": "unknown"
        } ]
      }
    },
    "request": {
      "method": "POST",
      "url": "Procedure",
      "ifNoneExist": "identifier=https://mein.krankenhaus.de/fhir/NamingSystem/procedureId|472d70893cf6edd253b72b41559eb3f02a54a241472336beedf45834d8191f3f"
    }
  }, {
    "fullUrl": "Procedure/6986e1f7856789e765d2fc2f10bd51bb699a57a62d7395eb2168e34d5d7c7b5c",
    "resource": {
      "resourceType": "Procedure",
      "meta": {
        "profile": [ "https://www.netzwerk-universitaetsmedizin.de/fhir/StructureDefinition/prone-position" ]
      },
      "identifier": [ {
        "system": "https://mein.krankenhaus.de/fhir/NamingSystem/procedureId",
        "value": "e2844910c6faeb0c91bc54e2f0a201e09e92eda49446f0691e516700329a99b4"
      } ],
      "status": "not-done",
      "category": {
        "coding": [ {
          "system": "http://snomed.info/sct",
          "code": "225287004",
          "display": "Procedures relating to positioning and support (procedure)"
        } ]
      },
      "code": {
        "coding": [ {
          "system": "http://snomed.info/sct",
          "code": "431182000"
        } ],
        "text": "Prone position"
      },
      "subject": {
        "reference": "Patient/f6ee5f3017cc35438708b106cdd30e8dae87cf64c8378e9ceb95ce94abf776ad"
      },
      "encounter": {
        "reference": "Encounter/3d40a0eefcd3dcd2f282e1c696adf36a547ac80cb03017279011ea4f66e809c5"
      },
      "_performedDateTime": {
        "extension": [ {
          "url": "http://hl7.org/fhir/StructureDefinition/data-absent-reason",
          "valueCode": "not-performed"
        } ]
      }
    },
    "request": {
      "method": "POST",
      "url": "Procedure",
      "ifNoneExist": "identifier=https://mein.krankenhaus.de/fhir/NamingSystem/procedureId|6986e1f7856789e765d2fc2f10bd51bb699a57a62d7395eb2168e34d5d7c7b5c"
    }
  }, {
    "fullUrl": "Procedure/5559a9239b9e3f0db3c276b330639734539f05ec73d1e9ca0358886036aa41d4",
    "resource": {
      "resourceType": "Procedure",
      "meta": {
        "profile": [ "https://www.netzwerk-universitaetsmedizin.de/fhir/StructureDefinition/extracorporeal-membrane-oxygenation" ]
      },
      "identifier": [ {
        "system": "https://mein.krankenhaus.de/fhir/NamingSystem/procedureId",
        "value": "79e324c5143759cf7afda7905259456490e921685c8112fcce663349c08fbfde"
      } ],
      "status": "unknown",
      "category": {
        "coding": [ {
          "system": "http://snomed.info/sct",
          "code": "277132007",
          "display": "Therapeutic procedure (procedure)"
        } ]
      },
      "code": {
        "coding": [ {
          "system": "http://snomed.info/sct",
          "code": "233573008"
        } ],
        "text": "ECMO"
      },
      "subject": {
        "reference": "Patient/f6ee5f3017cc35438708b106cdd30e8dae87cf64c8378e9ceb95ce94abf776ad"
      },
      "encounter": {
        "reference": "Encounter/3d40a0eefcd3dcd2f282e1c696adf36a547ac80cb03017279011ea4f66e809c5"
      },
      "_performedDateTime": {
        "extension": [ {
          "url": "http://hl7.org/fhir/StructureDefinition/data-absent-reason",
          "valueCode": "unknown"
        } ]
      }
    },
    "request": {
      "method": "POST",
      "url": "Procedure",
      "ifNoneExist": "identifier=https://mein.krankenhaus.de/fhir/NamingSystem/procedureId|5559a9239b9e3f0db3c276b330639734539f05ec73d1e9ca0358886036aa41d4"
    }
  }, {
    "fullUrl": "Procedure/bfec758168274395ac65bc22688b958e2ae9c455f8694f90dbad3b9147d5e9b8",
    "resource": {
      "resourceType": "Procedure",
      "meta": {
        "profile": [ "https://www.netzwerk-universitaetsmedizin.de/fhir/StructureDefinition/respiratory-therapies" ]
      },
      "identifier": [ {
        "system": "https://mein.krankenhaus.de/fhir/NamingSystem/procedureId",
        "value": "244ea1ad457ae5835bc04f20c5b1e724d546ec78cd70aa26f283b4f327ee9b30"
      } ],
      "status": "in-progress",
      "category": {
        "coding": [ {
          "system": "http://snomed.info/sct",
          "code": "277132007",
          "display": "Therapeutic procedure (procedure)"
        } ]
      },
      "code": {
        "coding": [ {
          "system": "http://snomed.info/sct",
          "code": "371907003:425391005=426854004"
        } ]
      },
      "subject": {
        "reference": "Patient/f6ee5f3017cc35438708b106cdd30e8dae87cf64c8378e9ceb95ce94abf776ad"
      },
      "encounter": {
        "reference": "Encounter/3d40a0eefcd3dcd2f282e1c696adf36a547ac80cb03017279011ea4f66e809c5"
      },
      "_performedDateTime": {
        "extension": [ {
          "url": "http://hl7.org/fhir/StructureDefinition/data-absent-reason",
          "valueCode": "unknown"
        } ]
      },
      "usedCode": [ {
        "coding": [ {
          "system": "http://snomed.info/sct",
          "code": "426854004"
        } ]
      } ]
    },
    "request": {
      "method": "POST",
      "url": "Procedure",
      "ifNoneExist": "identifier=https://mein.krankenhaus.de/fhir/NamingSystem/procedureId|bfec758168274395ac65bc22688b958e2ae9c455f8694f90dbad3b9147d5e9b8"
    }
  }, {
    "fullUrl": "Observation/98c5899e4614705d989bebb5d80581427a1407bd7d976a97533b87eb5bec807b",
    "resource": {
      "resourceType": "Observation",
      "meta": {
        "profile": [ "https://www.netzwerk-universitaetsmedizin.de/fhir/StructureDefinition/patient-in-icu" ]
      },
      "identifier": [ {
        "system": "https://mein.krankenhaus.de/fhir/NamingSystem/observationId",
        "value": "fa4afeb183f41c8ab9bde476915575dacf80651c7f612104cfacc8b53cdeb2d9"
      } ],
      "status": "final",
      "category": [ {
        "coding": [ {
          "system": "http://terminology.hl7.org/CodeSystem/observation-category",
          "code": "survey",
          "display": "Survey"
        } ]
      } ],
      "code": {
        "coding": [ {
          "system": "https://www.netzwerk-universitaetsmedizin.de/fhir/CodeSystem/ecrf-parameter-codes",
          "code": "01",
          "display": "Is the patient in the intensive care unit?"
        } ]
      },
      "subject": {
        "reference": "Patient/f6ee5f3017cc35438708b106cdd30e8dae87cf64c8378e9ceb95ce94abf776ad"
      },
      "encounter": {
        "reference": "Encounter/3d40a0eefcd3dcd2f282e1c696adf36a547ac80cb03017279011ea4f66e809c5"
      },
      "_effectiveDateTime": {
        "extension": [ {
          "url": "http://hl7.org/fhir/StructureDefinition/data-absent-reason",
          "valueCode": "unknown"
        } ]
      },
      "valueCodeableConcept": {
        "coding": [ {
          "system": "http://snomed.info/sct",
          "code": "373066001"
        } ]
      }
    },
    "request": {
      "method": "POST",
      "url": "Observation",
      "ifNoneExist": "identifier=https://mein.krankenhaus.de/fhir/NamingSystem/observationId|98c5899e4614705d989bebb5d80581427a1407bd7d976a97533b87eb5bec807b"
    }
  }, {
    "fullUrl": "Condition/baeb898d988f649aa310604b09f7922f9602f5a5886bd1bf0a18d9dd06b4df65",
    "resource": {
      "resourceType": "Condition",
      "meta": {
        "profile": [ "https://www.netzwerk-universitaetsmedizin.de/fhir/StructureDefinition/dependence-on-ventilator" ]
      },
      "identifier": [ {
        "system": "https://mein.krankenhaus.de/fhir/NamingSystem/conditionId",
        "value": "03edc453aac1dd72b875c461c47c8a0de1e1d37994f01896a72220736e7fe985"
      } ],
      "clinicalStatus": {
        "coding": [ {
          "system": "http://terminology.hl7.org/CodeSystem/condition-clinical",
          "code": "active",
          "display": "Active"
        } ]
      },
      "verificationStatus": {
        "coding": [ {
          "system": "http://terminology.hl7.org/CodeSystem/condition-ver-status",
          "code": "confirmed",
          "display": "Confirmed"
        }, {
          "system": "http://snomed.info/sct",
          "code": "410605003",
          "display": "Confirmed present (qualifier value)"
        } ]
      },
      "category": [ {
        "coding": [ {
          "system": "http://snomed.info/sct",
          "code": "404989005",
          "display": "Ventilation status (observable entity)"
        } ]
      } ],
      "code": {
        "coding": [ {
          "system": "http://snomed.info/sct",
          "code": "444932008"
        } ]
      },
      "subject": {
        "reference": "Patient/f6ee5f3017cc35438708b106cdd30e8dae87cf64c8378e9ceb95ce94abf776ad"
      },
      "encounter": {
        "reference": "Encounter/3d40a0eefcd3dcd2f282e1c696adf36a547ac80cb03017279011ea4f66e809c5"
      },
      "_recordedDate": {
        "extension": [ {
          "url": "http://hl7.org/fhir/StructureDefinition/data-absent-reason",
          "valueCode": "unknown"
        } ]
      }
    },
    "request": {
      "method": "POST",
      "url": "Condition",
      "ifNoneExist": "identifier=https://mein.krankenhaus.de/fhir/NamingSystem/conditionId|baeb898d988f649aa310604b09f7922f9602f5a5886bd1bf0a18d9dd06b4df65"
    }
  }, {
    "fullUrl": "Observation/1ebe1eeb27343ffc2e2a713dd1ebbe31f80c13fe613fa0a7da3a6d85d21405fe",
    "resource": {
      "resourceType": "Observation",
      "meta": {
        "profile": [ "https://www.netzwerk-universitaetsmedizin.de/fhir/StructureDefinition/discharge-disposition" ]
      },
      "identifier": [ {
        "type": {
          "coding": [ {
            "system": "http://terminology.hl7.org/CodeSystem/v2-0203",
            "code": "OBI",
            "display": "Observation Instance Identifier"
          } ]
        },
        "system": "https://mein.krankenhaus.de/fhir/NamingSystem/observationId",
        "value": "cb02874b8a06dc5334256377bb1745c41086ee2473038f1b6efade5b3868bfca",
        "assigner": {
          "reference": "Organization/3a4f3433bce81181bad2d8e0b8fafccf7dc800bc06f29be73dcb38b750a48f9a"
        }
      } ],
      "status": "final",
      "category": [ {
        "coding": [ {
          "system": "http://terminology.hl7.org/CodeSystem/observation-category",
          "code": "social-history",
          "display": "Social History"
        } ]
      } ],
      "code": {
        "coding": [ {
          "system": "http://loinc.org",
          "code": "55128-3"
        } ],
        "text": "type of Discharge"
      },
      "subject": {
        "reference": "Patient/f6ee5f3017cc35438708b106cdd30e8dae87cf64c8378e9ceb95ce94abf776ad"
      },
      "encounter": {
        "reference": "Encounter/3d40a0eefcd3dcd2f282e1c696adf36a547ac80cb03017279011ea4f66e809c5"
      },
      "_effectiveDateTime": {
        "extension": [ {
          "url": "http://hl7.org/fhir/StructureDefinition/data-absent-reason",
          "valueCode": "unknown"
        } ]
      },
      "valueCodeableConcept": {
        "coding": [ {
          "system": "http://snomed.info/sct",
          "code": "32485007"
        } ]
      }
    },
    "request": {
      "method": "POST",
      "url": "Observation",
      "ifNoneExist": "identifier=https://mein.krankenhaus.de/fhir/NamingSystem/observationId|1ebe1eeb27343ffc2e2a713dd1ebbe31f80c13fe613fa0a7da3a6d85d21405fe"
    }
  }, {
    "fullUrl": "Observation/70f2d3606e1d20c3111c199265cb27e30151240886de86a3a938fbe069252971",
    "resource": {
      "resourceType": "Observation",
      "meta": {
        "profile": [ "https://www.netzwerk-universitaetsmedizin.de/fhir/StructureDefinition/sars-cov-2-rt-pcr" ]
      },
      "identifier": [ {
        "type": {
          "coding": [ {
            "system": "http://terminology.hl7.org/CodeSystem/v2-0203",
            "code": "OBI",
            "display": "Observation Instance Identifier"
          } ]
        },
        "system": "https://mein.krankenhaus.de/fhir/NamingSystem/observationId",
        "value": "a8448315975dcc0c28c61604f91daa52f8a8f2bbcffd4f9c59b53eebb07b16d9",
        "assigner": {
          "reference": "Organization/3a4f3433bce81181bad2d8e0b8fafccf7dc800bc06f29be73dcb38b750a48f9a"
        }
      } ],
      "status": "final",
      "category": [ {
        "coding": [ {
          "system": "http://terminology.hl7.org/CodeSystem/observation-category",
          "code": "laboratory",
          "display": "Laboratory"
        }, {
          "system": "http://loinc.org",
          "code": "26436-6",
          "display": "Laboratory studies (set)"
        } ]
      } ],
      "code": {
        "coding": [ {
          "system": "http://loinc.org",
          "code": "94500-6"
        } ]
      },
      "subject": {
        "reference": "Patient/f6ee5f3017cc35438708b106cdd30e8dae87cf64c8378e9ceb95ce94abf776ad"
      },
      "encounter": {
        "reference": "Encounter/3d40a0eefcd3dcd2f282e1c696adf36a547ac80cb03017279011ea4f66e809c5"
      },
      "_effectiveDateTime": {
        "extension": [ {
          "url": "http://hl7.org/fhir/StructureDefinition/data-absent-reason",
          "valueCode": "unknown"
        } ]
      },
      "valueCodeableConcept": {
        "coding": [ {
          "system": "http://snomed.info/sct",
          "code": "260373001"
        } ]
      }
    },
    "request": {
      "method": "POST",
      "url": "Observation",
      "ifNoneExist": "identifier=https://mein.krankenhaus.de/fhir/NamingSystem/observationId|70f2d3606e1d20c3111c199265cb27e30151240886de86a3a938fbe069252971"
    }
  }, {
    "fullUrl": "MedicationStatement/6ae9a180a372a40ae7357148ebb140b26ad82f4e6f8c7a3409846da879171d7e",
    "resource": {
      "resourceType": "MedicationStatement",
      "meta": {
        "profile": [ "https://www.netzwerk-universitaetsmedizin.de/fhir/StructureDefinition/pharmacological-therapy" ]
      },
      "identifier": [ {
        "system": "https://mein.krankenhaus.de/fhir/NamingSystem/medicationstatementId",
        "value": "a2fb2e4d9d980c6a35f6c2cde9cce1c76f76d2f0368505d9e976febb552878f9"
      } ],
      "status": "not-taken",
      "medicationCodeableConcept": {
        "coding": [ {
          "system": "http://snomed.info/sct",
          "code": "41549009"
        } ],
        "text": "ACE inhibitors"
      },
      "subject": {
        "reference": "Patient/f6ee5f3017cc35438708b106cdd30e8dae87cf64c8378e9ceb95ce94abf776ad"
      },
      "effectiveDateTime": "2020-11-14T18:22:00+00:00"
    },
    "request": {
      "method": "POST",
      "url": "MedicationStatement",
      "ifNoneExist": "identifier=https://mein.krankenhaus.de/fhir/NamingSystem/medicationstatementId|6ae9a180a372a40ae7357148ebb140b26ad82f4e6f8c7a3409846da879171d7e"
    }
  }, {
    "fullUrl": "MedicationStatement/6d129350a5dce676900e5168dd4d4b99d10baa986fc5c3f7af4bcfad85013993",
    "resource": {
      "resourceType": "MedicationStatement",
      "meta": {
        "profile": [ "https://www.netzwerk-universitaetsmedizin.de/fhir/StructureDefinition/pharmacological-therapy" ]
      },
      "identifier": [ {
        "system": "https://mein.krankenhaus.de/fhir/NamingSystem/medicationstatementId",
        "value": "ce53dbd47027d98c0064a0a59d7bda04f833d8b1aa44a108f36c4856a9eb3bab"
      } ],
      "status": "active",
      "medicationCodeableConcept": {
        "coding": [ {
          "system": "http://snomed.info/sct",
          "code": "333710000"
        } ],
        "text": "immunoglobulins"
      },
      "subject": {
        "reference": "Patient/f6ee5f3017cc35438708b106cdd30e8dae87cf64c8378e9ceb95ce94abf776ad"
      },
      "effectiveDateTime": "2020-11-14T18:22:00+00:00"
    },
    "request": {
      "method": "POST",
      "url": "MedicationStatement",
      "ifNoneExist": "identifier=https://mein.krankenhaus.de/fhir/NamingSystem/medicationstatementId|6d129350a5dce676900e5168dd4d4b99d10baa986fc5c3f7af4bcfad85013993"
    }
  }, {
    "fullUrl": "MedicationStatement/f5f3336118e3d7b600cbff4f3216d5e4291a27a4573535fa3c75c6c2b9157367",
    "resource": {
      "resourceType": "MedicationStatement",
      "meta": {
        "profile": [ "https://www.netzwerk-universitaetsmedizin.de/fhir/StructureDefinition/pharmacological-therapy" ]
      },
      "identifier": [ {
        "system": "https://mein.krankenhaus.de/fhir/NamingSystem/medicationstatementId",
        "value": "6ede8804884079184c8881a3041b449c028cc4e262c54be077a57245cc467bf2"
      } ],
      "status": "unknown",
      "medicationCodeableConcept": {
        "coding": [ {
          "system": "http://fhir.de/CodeSystem/dimdi/atc",
          "code": "N02B"
        }, {
          "system": "https://www.netzwerk-universitaetsmedizin.de/fhir/CodeSystem/ecrf-parameter-codes",
          "code": "antipyretic"
        } ]
      },
      "subject": {
        "reference": "Patient/f6ee5f3017cc35438708b106cdd30e8dae87cf64c8378e9ceb95ce94abf776ad"
      },
      "effectiveDateTime": "2020-04-17T21:08:00+00:00"
    },
    "request": {
      "method": "POST",
      "url": "MedicationStatement",
      "ifNoneExist": "identifier=https://mein.krankenhaus.de/fhir/NamingSystem/medicationstatementId|f5f3336118e3d7b600cbff4f3216d5e4291a27a4573535fa3c75c6c2b9157367"
    }
  }, {
    "fullUrl": "MedicationStatement/d938e241bd16fdc3c9581bc98ed3341fe22aa83bf97a13774924ce34c5e30824",
    "resource": {
      "resourceType": "MedicationStatement",
      "meta": {
        "profile": [ "https://www.netzwerk-universitaetsmedizin.de/fhir/StructureDefinition/pharmacological-therapy" ]
      },
      "identifier": [ {
        "system": "https://mein.krankenhaus.de/fhir/NamingSystem/medicationstatementId",
        "value": "490a050791cdf51c3bf161136b564c36b57ceb4e35fdb9dd7450c66c90734871"
      } ],
      "status": "unknown",
      "medicationCodeableConcept": {
        "coding": [ {
          "system": "http://fhir.de/CodeSystem/dimdi/atc",
          "code": "G01B"
        }, {
          "system": "http://fhir.de/CodeSystem/dimdi/atc",
          "code": "H02"
        }, {
          "system": "http://fhir.de/CodeSystem/dimdi/atc",
          "code": "M01BA"
        }, {
          "system": "http://fhir.de/CodeSystem/dimdi/atc",
          "code": "R03AK"
        }, {
          "system": "http://fhir.de/CodeSystem/dimdi/atc",
          "code": "S02B"
        }, {
          "system": "http://fhir.de/CodeSystem/dimdi/atc",
          "code": "R03AL"
        }, {
          "system": "http://snomed.info/sct",
          "code": "768759001"
        } ]
      },
      "subject": {
        "reference": "Patient/f6ee5f3017cc35438708b106cdd30e8dae87cf64c8378e9ceb95ce94abf776ad"
      },
      "effectiveDateTime": "2020-04-17T21:08:00+00:00"
    },
    "request": {
      "method": "POST",
      "url": "MedicationStatement",
      "ifNoneExist": "identifier=https://mein.krankenhaus.de/fhir/NamingSystem/medicationstatementId|d938e241bd16fdc3c9581bc98ed3341fe22aa83bf97a13774924ce34c5e30824"
    }
  }, {
    "fullUrl": "MedicationStatement/cbb27c5b9f23a36739b771ead27e924cb14513a85a9968dd4742c919d37b6caa",
    "resource": {
      "resourceType": "MedicationStatement",
      "meta": {
        "profile": [ "https://www.netzwerk-universitaetsmedizin.de/fhir/StructureDefinition/pharmacological-therapy" ]
      },
      "identifier": [ {
        "system": "https://mein.krankenhaus.de/fhir/NamingSystem/medicationstatementId",
        "value": "e56dca9283cc52ca31ad928b031047979e7c72098ca662662d887da839814e01"
      } ],
      "status": "unknown",
      "medicationCodeableConcept": {
        "coding": [ {
          "system": "http://fhir.de/CodeSystem/dimdi/atc",
          "code": "J05AE08"
        }, {
          "system": "http://fhir.de/CodeSystem/dimdi/atc",
          "code": "J05AR15"
        }, {
          "system": "http://fhir.de/CodeSystem/dimdi/atc",
          "code": "J05AR23"
        }, {
          "system": "http://snomed.info/sct",
          "code": "413591007"
        } ]
      },
      "subject": {
        "reference": "Patient/f6ee5f3017cc35438708b106cdd30e8dae87cf64c8378e9ceb95ce94abf776ad"
      },
      "effectiveDateTime": "2020-04-17T21:08:00+00:00"
    },
    "request": {
      "method": "POST",
      "url": "MedicationStatement",
      "ifNoneExist": "identifier=https://mein.krankenhaus.de/fhir/NamingSystem/medicationstatementId|cbb27c5b9f23a36739b771ead27e924cb14513a85a9968dd4742c919d37b6caa"
    }
  }, {
    "fullUrl": "MedicationStatement/d5af89a3007d7eee6dab1096b9a10bcbdb354a7e0fe662a2c5c0284c35f5bae8",
    "resource": {
      "resourceType": "MedicationStatement",
      "meta": {
        "profile": [ "https://www.netzwerk-universitaetsmedizin.de/fhir/StructureDefinition/pharmacological-therapy" ]
      },
      "identifier": [ {
        "system": "https://mein.krankenhaus.de/fhir/NamingSystem/medicationstatementId",
        "value": "51f9e584ffe5f2823652ef0be56fd37e2e76fd877a8c4b11324e259c09b105ed"
      } ],
      "status": "not-taken",
      "medicationCodeableConcept": {
        "coding": [ {
          "system": "http://fhir.de/CodeSystem/dimdi/atc",
          "code": "P01BA01"
        }, {
          "system": "http://snomed.info/sct",
          "code": "14728000"
        } ]
      },
      "subject": {
        "reference": "Patient/f6ee5f3017cc35438708b106cdd30e8dae87cf64c8378e9ceb95ce94abf776ad"
      },
      "effectiveDateTime": "2020-04-17T21:08:00+00:00"
    },
    "request": {
      "method": "POST",
      "url": "MedicationStatement",
      "ifNoneExist": "identifier=https://mein.krankenhaus.de/fhir/NamingSystem/medicationstatementId|d5af89a3007d7eee6dab1096b9a10bcbdb354a7e0fe662a2c5c0284c35f5bae8"
    }
  }, {
    "fullUrl": "MedicationStatement/7bba527fcd6df41bdb6d897c94366db03a251604a4f129725a6e95aa45c3725e",
    "resource": {
      "resourceType": "MedicationStatement",
      "meta": {
        "profile": [ "https://www.netzwerk-universitaetsmedizin.de/fhir/StructureDefinition/pharmacological-therapy" ]
      },
      "identifier": [ {
        "system": "https://mein.krankenhaus.de/fhir/NamingSystem/medicationstatementId",
        "value": "075c3458f69c575783b4bfb01a1546b602ee648b69365d31198f6e6b6fca76a2"
      } ],
      "status": "unknown",
      "medicationCodeableConcept": {
        "coding": [ {
          "system": "http://fhir.de/CodeSystem/dimdi/atc",
          "code": "P01BA02"
        }, {
          "system": "http://snomed.info/sct",
          "code": "83490000"
        } ]
      },
      "subject": {
        "reference": "Patient/f6ee5f3017cc35438708b106cdd30e8dae87cf64c8378e9ceb95ce94abf776ad"
      },
      "effectiveDateTime": "2020-04-17T21:08:00+00:00"
    },
    "request": {
      "method": "POST",
      "url": "MedicationStatement",
      "ifNoneExist": "identifier=https://mein.krankenhaus.de/fhir/NamingSystem/medicationstatementId|7bba527fcd6df41bdb6d897c94366db03a251604a4f129725a6e95aa45c3725e"
    }
  }, {
    "fullUrl": "MedicationStatement/1c36b2adca4323fc9255bdb6e0123e53954ea4b2bafd2382c8a563cc7abd8707",
    "resource": {
      "resourceType": "MedicationStatement",
      "meta": {
        "profile": [ "https://www.netzwerk-universitaetsmedizin.de/fhir/StructureDefinition/pharmacological-therapy" ]
      },
      "identifier": [ {
        "system": "https://mein.krankenhaus.de/fhir/NamingSystem/medicationstatementId",
        "value": "23bd3c58e1d43c566721d28439f7e7986c3fda52b1974bcc5665cf094002d7d2"
      } ],
      "status": "active",
      "medicationCodeableConcept": {
        "coding": [ {
          "system": "http://fhir.de/CodeSystem/dimdi/atc",
          "code": "J05AR10"
        }, {
          "system": "http://snomed.info/sct",
          "code": "134573001"
        } ]
      },
      "subject": {
        "reference": "Patient/f6ee5f3017cc35438708b106cdd30e8dae87cf64c8378e9ceb95ce94abf776ad"
      },
      "effectiveDateTime": "2020-04-17T21:08:00+00:00"
    },
    "request": {
      "method": "POST",
      "url": "MedicationStatement",
      "ifNoneExist": "identifier=https://mein.krankenhaus.de/fhir/NamingSystem/medicationstatementId|1c36b2adca4323fc9255bdb6e0123e53954ea4b2bafd2382c8a563cc7abd8707"
    }
  }, {
    "fullUrl": "MedicationStatement/d9c771de8944ea7cbfba8cf507d58c4c7eec5c184e24a8770f6be04482e7af6d",
    "resource": {
      "resourceType": "MedicationStatement",
      "meta": {
        "profile": [ "https://www.netzwerk-universitaetsmedizin.de/fhir/StructureDefinition/pharmacological-therapy" ]
      },
      "identifier": [ {
        "system": "https://mein.krankenhaus.de/fhir/NamingSystem/medicationstatementId",
        "value": "fe62437333152fb5d0b55ff4050a748004b44c1d313c6e747e2ad886d3cb372f"
      } ],
      "status": "active",
      "medicationCodeableConcept": {
        "coding": [ {
          "system": "http://fhir.de/CodeSystem/dimdi/atc",
          "code": "J05AB06"
        }, {
          "system": "http://fhir.de/CodeSystem/dimdi/atc",
          "code": "S01AD09"
        }, {
          "system": "http://snomed.info/sct",
          "code": "78025001"
        } ]
      },
      "subject": {
        "reference": "Patient/f6ee5f3017cc35438708b106cdd30e8dae87cf64c8378e9ceb95ce94abf776ad"
      },
      "effectiveDateTime": "2020-04-17T21:08:00+00:00"
    },
    "request": {
      "method": "POST",
      "url": "MedicationStatement",
      "ifNoneExist": "identifier=https://mein.krankenhaus.de/fhir/NamingSystem/medicationstatementId|d9c771de8944ea7cbfba8cf507d58c4c7eec5c184e24a8770f6be04482e7af6d"
    }
  }, {
    "fullUrl": "MedicationStatement/a3428420eacf8663cc7339fe9b90e36426933e96b5b44ba2c4becc5bbbd5e029",
    "resource": {
      "resourceType": "MedicationStatement",
      "meta": {
        "profile": [ "https://www.netzwerk-universitaetsmedizin.de/fhir/StructureDefinition/pharmacological-therapy" ]
      },
      "identifier": [ {
        "system": "https://mein.krankenhaus.de/fhir/NamingSystem/medicationstatementId",
        "value": "efe201a1ec72522cf660245d988967d7c48eaf609306f63dbadd3df6144ea87d"
      } ],
      "status": "active",
      "medicationCodeableConcept": {
        "coding": [ {
          "system": "http://fhir.de/CodeSystem/dimdi/atc",
          "code": "J05AH02"
        }, {
          "system": "http://snomed.info/sct",
          "code": "386142008"
        } ]
      },
      "subject": {
        "reference": "Patient/f6ee5f3017cc35438708b106cdd30e8dae87cf64c8378e9ceb95ce94abf776ad"
      },
      "effectiveDateTime": "2020-04-17T21:08:00+00:00"
    },
    "request": {
      "method": "POST",
      "url": "MedicationStatement",
      "ifNoneExist": "identifier=https://mein.krankenhaus.de/fhir/NamingSystem/medicationstatementId|a3428420eacf8663cc7339fe9b90e36426933e96b5b44ba2c4becc5bbbd5e029"
    }
  }, {
    "fullUrl": "MedicationStatement/5d51ae8853c459304611238e6bc5ae72ba4c6eeae3adca85a371d4942a6c6666",
    "resource": {
      "resourceType": "MedicationStatement",
      "meta": {
        "profile": [ "https://www.netzwerk-universitaetsmedizin.de/fhir/StructureDefinition/pharmacological-therapy" ]
      },
      "identifier": [ {
        "system": "https://mein.krankenhaus.de/fhir/NamingSystem/medicationstatementId",
        "value": "9c837cccfe56adfa8b0e2453f9a785c963acccd170c85f8860351c3a1df4313e"
      } ],
      "status": "active",
      "medicationCodeableConcept": {
        "coding": [ {
          "system": "http://fdasis.nlm.nih.gov",
          "code": "3QKI37EEHE"
        }, {
          "system": "http://snomed.info/sct",
          "code": "870518005"
        } ]
      },
      "subject": {
        "reference": "Patient/f6ee5f3017cc35438708b106cdd30e8dae87cf64c8378e9ceb95ce94abf776ad"
      },
      "effectiveDateTime": "2020-04-17T21:08:00+00:00"
    },
    "request": {
      "method": "POST",
      "url": "MedicationStatement",
      "ifNoneExist": "identifier=https://mein.krankenhaus.de/fhir/NamingSystem/medicationstatementId|5d51ae8853c459304611238e6bc5ae72ba4c6eeae3adca85a371d4942a6c6666"
    }
  }, {
    "fullUrl": "MedicationStatement/755d647dc3cd76040f6bd0f4167c73b82d372208f231361bc39e3adafa0a2c69",
    "resource": {
      "resourceType": "MedicationStatement",
      "meta": {
        "profile": [ "https://www.netzwerk-universitaetsmedizin.de/fhir/StructureDefinition/pharmacological-therapy" ]
      },
      "identifier": [ {
        "system": "https://mein.krankenhaus.de/fhir/NamingSystem/medicationstatementId",
        "value": "028b5f01157778bcf8eff314f99df29a99041b92750200acfc48b283bae10204"
      } ],
      "status": "unknown",
      "medicationCodeableConcept": {
        "coding": [ {
          "system": "http://fhir.de/CodeSystem/dimdi/atc",
          "code": "J05AP01"
        }, {
          "system": "http://snomed.info/sct",
          "code": "35063004"
        } ]
      },
      "subject": {
        "reference": "Patient/f6ee5f3017cc35438708b106cdd30e8dae87cf64c8378e9ceb95ce94abf776ad"
      },
      "effectiveDateTime": "2020-04-17T21:08:00+00:00"
    },
    "request": {
      "method": "POST",
      "url": "MedicationStatement",
      "ifNoneExist": "identifier=https://mein.krankenhaus.de/fhir/NamingSystem/medicationstatementId|755d647dc3cd76040f6bd0f4167c73b82d372208f231361bc39e3adafa0a2c69"
    }
  }, {
    "fullUrl": "MedicationStatement/9880d8a4cd763f382839ec06c3ad1240bd7120ff41818c46b9250504437a98bf",
    "resource": {
      "resourceType": "MedicationStatement",
      "meta": {
        "profile": [ "https://www.netzwerk-universitaetsmedizin.de/fhir/StructureDefinition/pharmacological-therapy" ]
      },
      "identifier": [ {
        "system": "https://mein.krankenhaus.de/fhir/NamingSystem/medicationstatementId",
        "value": "eb9c9a12d072d6bb7a2e43f3d77fc5a8d9c51497f7fcd5931bb58c6bd26a6ac8"
      } ],
      "status": "unknown",
      "medicationCodeableConcept": {
        "coding": [ {
          "system": "http://fhir.de/CodeSystem/dimdi/atc",
          "code": "B02AB04"
        }, {
          "system": "https://www.netzwerk-universitaetsmedizin.de/fhir/CodeSystem/ecrf-parameter-codes",
          "code": "camostat"
        } ]
      },
      "subject": {
        "reference": "Patient/f6ee5f3017cc35438708b106cdd30e8dae87cf64c8378e9ceb95ce94abf776ad"
      },
      "effectiveDateTime": "2020-04-17T21:08:00+00:00"
    },
    "request": {
      "method": "POST",
      "url": "MedicationStatement",
      "ifNoneExist": "identifier=https://mein.krankenhaus.de/fhir/NamingSystem/medicationstatementId|9880d8a4cd763f382839ec06c3ad1240bd7120ff41818c46b9250504437a98bf"
    }
  }, {
    "fullUrl": "MedicationStatement/dd67e0a576da4b69dabc3a243a3f5fcd8e20239dbf225b04d770e83d3adabf67",
    "resource": {
      "resourceType": "MedicationStatement",
      "meta": {
        "profile": [ "https://www.netzwerk-universitaetsmedizin.de/fhir/StructureDefinition/pharmacological-therapy" ]
      },
      "identifier": [ {
        "system": "https://mein.krankenhaus.de/fhir/NamingSystem/medicationstatementId",
        "value": "2673343b498d4c2a36d96d9f54407555cc2d4768a784fab7ef7232a0561e5470"
      } ],
      "status": "not-taken",
      "medicationCodeableConcept": {
        "coding": [ {
          "system": "http://fhir.de/CodeSystem/dimdi/atc",
          "code": "J05AX27"
        }, {
          "system": "https://www.netzwerk-universitaetsmedizin.de/fhir/CodeSystem/ecrf-parameter-codes",
          "code": "favipiravir"
        } ]
      },
      "subject": {
        "reference": "Patient/f6ee5f3017cc35438708b106cdd30e8dae87cf64c8378e9ceb95ce94abf776ad"
      },
      "effectiveDateTime": "2020-04-17T21:08:00+00:00"
    },
    "request": {
      "method": "POST",
      "url": "MedicationStatement",
      "ifNoneExist": "identifier=https://mein.krankenhaus.de/fhir/NamingSystem/medicationstatementId|dd67e0a576da4b69dabc3a243a3f5fcd8e20239dbf225b04d770e83d3adabf67"
    }
  }, {
    "fullUrl": "MedicationStatement/82b1f66ff4dc2e68ea694ffd1dd2a01efc13c792f1b7769140f1ef1d428e137d",
    "resource": {
      "resourceType": "MedicationStatement",
      "meta": {
        "profile": [ "https://www.netzwerk-universitaetsmedizin.de/fhir/StructureDefinition/pharmacological-therapy" ]
      },
      "identifier": [ {
        "system": "https://mein.krankenhaus.de/fhir/NamingSystem/medicationstatementId",
        "value": "59ee049936643f964921ef526fd1393a560a48267b6412541e319ce6c615e3b1"
      } ],
      "status": "not-taken",
      "medicationCodeableConcept": {
        "coding": [ {
          "system": "urn:oid:2.16.840.1.113883.6.18.2.6",
          "code": "E9743"
        }, {
          "system": "urn:oid:2.16.840.1.113883.6.18.2.6",
          "code": "E9744"
        }, {
          "system": "urn:oid:2.16.840.1.113883.6.18.2.6",
          "code": "E9745"
        }, {
          "system": "urn:oid:2.16.840.1.113883.6.18.2.6",
          "code": "E9746"
        }, {
          "system": "urn:oid:2.16.840.1.113883.6.18.2.6",
          "code": "E9747"
        }, {
          "system": "urn:oid:2.16.840.1.113883.6.18.2.6",
          "code": "E9748"
        }, {
          "system": "urn:oid:2.16.840.1.113883.6.18.2.6",
          "code": "E9749"
        }, {
          "system": "urn:oid:2.16.840.1.113883.6.18.2.6",
          "code": "E9750"
        }, {
          "system": "urn:oid:2.16.840.1.113883.6.18.2.6",
          "code": "E9752"
        }, {
          "system": "https://www.netzwerk-universitaetsmedizin.de/fhir/CodeSystem/ecrf-parameter-codes",
          "code": "convalescent-plasma"
        } ]
      },
      "subject": {
        "reference": "Patient/f6ee5f3017cc35438708b106cdd30e8dae87cf64c8378e9ceb95ce94abf776ad"
      },
      "effectiveDateTime": "2020-04-17T21:08:00+00:00"
    },
    "request": {
      "method": "POST",
      "url": "MedicationStatement",
      "ifNoneExist": "identifier=https://mein.krankenhaus.de/fhir/NamingSystem/medicationstatementId|82b1f66ff4dc2e68ea694ffd1dd2a01efc13c792f1b7769140f1ef1d428e137d"
    }
  }, {
    "fullUrl": "MedicationStatement/1f94f575a5fd7322b77e7ad1848d9ebe8b279c3153145d8518ce1357e0784fcd",
    "resource": {
      "resourceType": "MedicationStatement",
      "meta": {
        "profile": [ "https://www.netzwerk-universitaetsmedizin.de/fhir/StructureDefinition/pharmacological-therapy" ]
      },
      "identifier": [ {
        "system": "https://mein.krankenhaus.de/fhir/NamingSystem/medicationstatementId",
        "value": "aa57d4b58441d47dfaa62aa615e8b77abf97c6165ec6e5883a877ea59fd1e73f"
      } ],
      "status": "unknown",
      "medicationCodeableConcept": {
        "coding": [ {
          "system": "https://www.netzwerk-universitaetsmedizin.de/fhir/CodeSystem/ecrf-parameter-codes",
          "code": "steroids-gt"
        } ]
      },
      "subject": {
        "reference": "Patient/f6ee5f3017cc35438708b106cdd30e8dae87cf64c8378e9ceb95ce94abf776ad"
      },
      "effectiveDateTime": "2020-04-17T21:08:00+00:00"
    },
    "request": {
      "method": "POST",
      "url": "MedicationStatement",
      "ifNoneExist": "identifier=https://mein.krankenhaus.de/fhir/NamingSystem/medicationstatementId|1f94f575a5fd7322b77e7ad1848d9ebe8b279c3153145d8518ce1357e0784fcd"
    }
  }, {
    "fullUrl": "MedicationStatement/5cc3d8c67b73e5ff0da69305b3f334cf516d9118fe00364a002f620e93ef0d87",
    "resource": {
      "resourceType": "MedicationStatement",
      "meta": {
        "profile": [ "https://www.netzwerk-universitaetsmedizin.de/fhir/StructureDefinition/pharmacological-therapy" ]
      },
      "identifier": [ {
        "system": "https://mein.krankenhaus.de/fhir/NamingSystem/medicationstatementId",
        "value": "d3382a3ea160ce0542a30782c2412f6b2cc026de666d53d63462b7bd5817f977"
      } ],
      "status": "not-taken",
      "medicationCodeableConcept": {
        "coding": [ {
          "system": "https://www.netzwerk-universitaetsmedizin.de/fhir/CodeSystem/ecrf-parameter-codes",
          "code": "steroids-lt"
        } ]
      },
      "subject": {
        "reference": "Patient/f6ee5f3017cc35438708b106cdd30e8dae87cf64c8378e9ceb95ce94abf776ad"
      },
      "effectiveDateTime": "2020-04-17T21:08:00+00:00"
    },
    "request": {
      "method": "POST",
      "url": "MedicationStatement",
      "ifNoneExist": "identifier=https://mein.krankenhaus.de/fhir/NamingSystem/medicationstatementId|5cc3d8c67b73e5ff0da69305b3f334cf516d9118fe00364a002f620e93ef0d87"
    }
  }, {
    "fullUrl": "MedicationStatement/03c2c5103169afade8fbfae59cbc8865176269f38b3c1b11237c2d522330e940",
    "resource": {
      "resourceType": "MedicationStatement",
      "meta": {
        "profile": [ "https://www.netzwerk-universitaetsmedizin.de/fhir/StructureDefinition/pharmacological-therapy" ]
      },
      "identifier": [ {
        "system": "https://mein.krankenhaus.de/fhir/NamingSystem/medicationstatementId",
        "value": "bb2da5d98a5d609994766eebaa5aff969d65195784dca346955aba9278ad45fb"
      } ],
      "status": "not-taken",
      "medicationCodeableConcept": {
        "coding": [ {
          "system": "http://fhir.de/CodeSystem/dimdi/ops",
          "code": "6-005.m"
        }, {
          "system": "http://fhir.de/CodeSystem/dimdi/ops",
          "code": "6-005.n"
        }, {
          "system": "http://fhir.de/CodeSystem/dimdi/atc",
          "code": "L04AC07"
        }, {
          "system": "http://snomed.info/sct",
          "code": "444649004"
        } ]
      },
      "subject": {
        "reference": "Patient/f6ee5f3017cc35438708b106cdd30e8dae87cf64c8378e9ceb95ce94abf776ad"
      },
      "effectiveDateTime": "2020-04-17T21:08:00+00:00"
    },
    "request": {
      "method": "POST",
      "url": "MedicationStatement",
      "ifNoneExist": "identifier=https://mein.krankenhaus.de/fhir/NamingSystem/medicationstatementId|03c2c5103169afade8fbfae59cbc8865176269f38b3c1b11237c2d522330e940"
    }
  }, {
    "fullUrl": "MedicationStatement/d5e3b2d84823b590f2a4406527eac99c3b8589ca41cf2689a6a1acbfd133b2bc",
    "resource": {
      "resourceType": "MedicationStatement",
      "meta": {
        "profile": [ "https://www.netzwerk-universitaetsmedizin.de/fhir/StructureDefinition/pharmacological-therapy" ]
      },
      "identifier": [ {
        "system": "https://mein.krankenhaus.de/fhir/NamingSystem/medicationstatementId",
        "value": "7f7e2b5242996c3af1b33c55013f601c9993d6565b49b9b3e86fabbbf7f577b3"
      } ],
      "status": "not-taken",
      "medicationCodeableConcept": {
        "coding": [ {
          "system": "http://fhir.de/CodeSystem/dimdi/ops",
          "code": "6-00a.g"
        }, {
          "system": "http://fhir.de/CodeSystem/dimdi/atc",
          "code": "L04AC14"
        }, {
          "system": "http://snomed.info/sct",
          "code": "763522001"
        } ]
      },
      "subject": {
        "reference": "Patient/f6ee5f3017cc35438708b106cdd30e8dae87cf64c8378e9ceb95ce94abf776ad"
      },
      "effectiveDateTime": "2020-04-17T21:08:00+00:00"
    },
    "request": {
      "method": "POST",
      "url": "MedicationStatement",
      "ifNoneExist": "identifier=https://mein.krankenhaus.de/fhir/NamingSystem/medicationstatementId|d5e3b2d84823b590f2a4406527eac99c3b8589ca41cf2689a6a1acbfd133b2bc"
    }
  }, {
    "fullUrl": "MedicationStatement/c809f924e2d1f33f9f90d547e957b791dc5c6f7200b77ccbb23ca98137f0d4e0",
    "resource": {
      "resourceType": "MedicationStatement",
      "meta": {
        "profile": [ "https://www.netzwerk-universitaetsmedizin.de/fhir/StructureDefinition/pharmacological-therapy" ]
      },
      "identifier": [ {
        "system": "https://mein.krankenhaus.de/fhir/NamingSystem/medicationstatementId",
        "value": "6b0e0f8070f0fbd8d996cdeda690cf4d731d1de53b8bb1c9cab2a3b37b3e4298"
      } ],
      "status": "active",
      "medicationCodeableConcept": {
        "coding": [ {
          "system": "http://fhir.de/CodeSystem/dimdi/atc",
          "code": "L04AD"
        } ]
      },
      "subject": {
        "reference": "Patient/f6ee5f3017cc35438708b106cdd30e8dae87cf64c8378e9ceb95ce94abf776ad"
      },
      "effectiveDateTime": "2020-04-17T21:08:00+00:00"
    },
    "request": {
      "method": "POST",
      "url": "MedicationStatement",
      "ifNoneExist": "identifier=https://mein.krankenhaus.de/fhir/NamingSystem/medicationstatementId|c809f924e2d1f33f9f90d547e957b791dc5c6f7200b77ccbb23ca98137f0d4e0"
    }
  }, {
    "fullUrl": "MedicationStatement/f5b8ad2c86bfa0de6121c7c20322197e57171627f8eeb6cec39201746e2efe02",
    "resource": {
      "resourceType": "MedicationStatement",
      "meta": {
        "profile": [ "https://www.netzwerk-universitaetsmedizin.de/fhir/StructureDefinition/pharmacological-therapy" ]
      },
      "identifier": [ {
        "system": "https://mein.krankenhaus.de/fhir/NamingSystem/medicationstatementId",
        "value": "ac390bd2a0a4c5e7def64963c5be693c6d1f6984edc873164e58464dac361357"
      } ],
      "status": "unknown",
      "medicationCodeableConcept": {
        "coding": [ {
          "system": "http://fhir.de/CodeSystem/dimdi/ops",
          "code": "6-001.d"
        }, {
          "system": "http://fhir.de/CodeSystem/dimdi/ops",
          "code": "6-002.b"
        }, {
          "system": "http://fhir.de/CodeSystem/dimdi/ops",
          "code": "6-005.7"
        }, {
          "system": "http://fhir.de/CodeSystem/dimdi/ops",
          "code": "6-005.2"
        }, {
          "system": "http://fhir.de/CodeSystem/dimdi/ops",
          "code": "6-001.e"
        }, {
          "system": "http://snomed.info/sct",
          "code": "416897008"
        } ]
      },
      "subject": {
        "reference": "Patient/f6ee5f3017cc35438708b106cdd30e8dae87cf64c8378e9ceb95ce94abf776ad"
      },
      "effectiveDateTime": "2020-04-17T21:08:00+00:00"
    },
    "request": {
      "method": "POST",
      "url": "MedicationStatement",
      "ifNoneExist": "identifier=https://mein.krankenhaus.de/fhir/NamingSystem/medicationstatementId|f5b8ad2c86bfa0de6121c7c20322197e57171627f8eeb6cec39201746e2efe02"
    }
  }, {
    "fullUrl": "MedicationStatement/acd1aa0d0c482d323bfacdb988d3fd1ac5e9172d70f0b82c33fe62b0ea907147",
    "resource": {
      "resourceType": "MedicationStatement",
      "meta": {
        "profile": [ "https://www.netzwerk-universitaetsmedizin.de/fhir/StructureDefinition/pharmacological-therapy" ]
      },
      "identifier": [ {
        "system": "https://mein.krankenhaus.de/fhir/NamingSystem/medicationstatementId",
        "value": "31ce41456e1c7bcf6081483ef66eb376a73e094af9060b1875b40ece9993a399"
      } ],
      "status": "active",
      "medicationCodeableConcept": {
        "coding": [ {
          "system": "http://fhir.de/CodeSystem/dimdi/ops",
          "code": "6-006.7"
        }, {
          "system": "http://fhir.de/CodeSystem/dimdi/atc",
          "code": "L04AC"
        }, {
          "system": "http://snomed.info/sct",
          "code": "430817009"
        } ]
      },
      "subject": {
        "reference": "Patient/f6ee5f3017cc35438708b106cdd30e8dae87cf64c8378e9ceb95ce94abf776ad"
      },
      "effectiveDateTime": "2020-04-17T21:08:00+00:00"
    },
    "request": {
      "method": "POST",
      "url": "MedicationStatement",
      "ifNoneExist": "identifier=https://mein.krankenhaus.de/fhir/NamingSystem/medicationstatementId|acd1aa0d0c482d323bfacdb988d3fd1ac5e9172d70f0b82c33fe62b0ea907147"
    }
  }, {
    "fullUrl": "MedicationStatement/8303a671131784f504f31bc05edc02714a5e266763cefef40bfff65b15bd6fb8",
    "resource": {
      "resourceType": "MedicationStatement",
      "meta": {
        "profile": [ "https://www.netzwerk-universitaetsmedizin.de/fhir/StructureDefinition/pharmacological-therapy" ]
      },
      "identifier": [ {
        "system": "https://mein.krankenhaus.de/fhir/NamingSystem/medicationstatementId",
        "value": "c7558b469d97e3c7d0a27a12fa81b689e9424dfdf3a73e92618f8f67d4d38d33"
      } ],
      "status": "active",
      "medicationCodeableConcept": {
        "coding": [ {
          "system": "http://fhir.de/CodeSystem/dimdi/ops",
          "code": "6-009.4"
        }, {
          "system": "http://snomed.info/sct",
          "code": "703779004"
        } ]
      },
      "subject": {
        "reference": "Patient/f6ee5f3017cc35438708b106cdd30e8dae87cf64c8378e9ceb95ce94abf776ad"
      },
      "effectiveDateTime": "2020-04-17T21:08:00+00:00"
    },
    "request": {
      "method": "POST",
      "url": "MedicationStatement",
      "ifNoneExist": "identifier=https://mein.krankenhaus.de/fhir/NamingSystem/medicationstatementId|8303a671131784f504f31bc05edc02714a5e266763cefef40bfff65b15bd6fb8"
    }
  }, {
    "fullUrl": "MedicationStatement/c82cf3c4f99302b24f2d77d889996ab1f74833220392c95573537878e5d3718f",
    "resource": {
      "resourceType": "MedicationStatement",
      "meta": {
        "profile": [ "https://www.netzwerk-universitaetsmedizin.de/fhir/StructureDefinition/pharmacological-therapy" ]
      },
      "identifier": [ {
        "system": "https://mein.krankenhaus.de/fhir/NamingSystem/medicationstatementId",
        "value": "07a3aa88714dcd93bc96a2baef92f9c3399acb5b847ac27b5f96d751d86407e5"
      } ],
      "status": "active",
      "medicationCodeableConcept": {
        "coding": [ {
          "system": "http://fhir.de/CodeSystem/dimdi/atc",
          "code": "M04AC01"
        }, {
          "system": "http://snomed.info/sct",
          "code": "73133000"
        } ]
      },
      "subject": {
        "reference": "Patient/f6ee5f3017cc35438708b106cdd30e8dae87cf64c8378e9ceb95ce94abf776ad"
      },
      "effectiveDateTime": "2020-04-17T21:08:00+00:00"
    },
    "request": {
      "method": "POST",
      "url": "MedicationStatement",
      "ifNoneExist": "identifier=https://mein.krankenhaus.de/fhir/NamingSystem/medicationstatementId|c82cf3c4f99302b24f2d77d889996ab1f74833220392c95573537878e5d3718f"
    }
  }, {
    "fullUrl": "MedicationStatement/565ca32eeeb46cca25b12103cb35b964f3e3810e0850b3b967c94eee859179ca",
    "resource": {
      "resourceType": "MedicationStatement",
      "meta": {
        "profile": [ "https://www.netzwerk-universitaetsmedizin.de/fhir/StructureDefinition/pharmacological-therapy" ]
      },
      "identifier": [ {
        "system": "https://mein.krankenhaus.de/fhir/NamingSystem/medicationstatementId",
        "value": "936a88b9e27cc7e9c642c7446707cfd70343f9ad17d131518630216067951a08"
      } ],
      "status": "unknown",
      "medicationCodeableConcept": {
        "coding": [ {
          "system": "http://fhir.de/CodeSystem/dimdi/atc",
          "code": "S01AD05"
        }, {
          "system": "http://snomed.info/sct",
          "code": "768865007"
        } ]
      },
      "subject": {
        "reference": "Patient/f6ee5f3017cc35438708b106cdd30e8dae87cf64c8378e9ceb95ce94abf776ad"
      },
      "effectiveDateTime": "2020-04-17T21:08:00+00:00"
    },
    "request": {
      "method": "POST",
      "url": "MedicationStatement",
      "ifNoneExist": "identifier=https://mein.krankenhaus.de/fhir/NamingSystem/medicationstatementId|565ca32eeeb46cca25b12103cb35b964f3e3810e0850b3b967c94eee859179ca"
    }
  }, {
    "fullUrl": "MedicationStatement/32972614164ba0e497baf3110a36786d25018705f1ca7a2eeeb0f50aedb80afc",
    "resource": {
      "resourceType": "MedicationStatement",
      "meta": {
        "profile": [ "https://www.netzwerk-universitaetsmedizin.de/fhir/StructureDefinition/pharmacological-therapy" ]
      },
      "identifier": [ {
        "system": "https://mein.krankenhaus.de/fhir/NamingSystem/medicationstatementId",
        "value": "51a85d1e2bf8db9e67fcd8f77ffa35258f09d9e16619fa4f57f99577ad1933ae"
      } ],
      "status": "active",
      "medicationCodeableConcept": {
        "coding": [ {
          "system": "http://fhir.de/CodeSystem/dimdi/atc",
          "code": "A11CC06"
        }, {
          "system": "http://snomed.info/sct",
          "code": "88519001"
        } ]
      },
      "subject": {
        "reference": "Patient/f6ee5f3017cc35438708b106cdd30e8dae87cf64c8378e9ceb95ce94abf776ad"
      },
      "effectiveDateTime": "2020-04-17T21:08:00+00:00"
    },
    "request": {
      "method": "POST",
      "url": "MedicationStatement",
      "ifNoneExist": "identifier=https://mein.krankenhaus.de/fhir/NamingSystem/medicationstatementId|32972614164ba0e497baf3110a36786d25018705f1ca7a2eeeb0f50aedb80afc"
    }
  }, {
    "fullUrl": "MedicationStatement/bc1c86c9e89d86c415f2894e8f410a9ffb454615e4c2ed0b2085c6de627b6851",
    "resource": {
      "resourceType": "MedicationStatement",
      "meta": {
        "profile": [ "https://www.netzwerk-universitaetsmedizin.de/fhir/StructureDefinition/pharmacological-therapy" ]
      },
      "identifier": [ {
        "system": "https://mein.krankenhaus.de/fhir/NamingSystem/medicationstatementId",
        "value": "d97a957d5e866fdc7669c4ddf936f7d0ed17bbab1aee8cad85a2ece099ccaed6"
      } ],
      "status": "active",
      "medicationCodeableConcept": {
        "coding": [ {
          "system": "http://fhir.de/CodeSystem/dimdi/atc",
          "code": "A12CB"
        }, {
          "system": "http://snomed.info/sct",
          "code": "764877006"
        } ]
      },
      "subject": {
        "reference": "Patient/f6ee5f3017cc35438708b106cdd30e8dae87cf64c8378e9ceb95ce94abf776ad"
      },
      "effectiveDateTime": "2020-04-17T21:08:00+00:00"
    },
    "request": {
      "method": "POST",
      "url": "MedicationStatement",
      "ifNoneExist": "identifier=https://mein.krankenhaus.de/fhir/NamingSystem/medicationstatementId|bc1c86c9e89d86c415f2894e8f410a9ffb454615e4c2ed0b2085c6de627b6851"
    }
  }, {
    "fullUrl": "MedicationStatement/1cba826942402670a9a1957585a7d5647286bd7cea8f16385061bc64fcc4d240",
    "resource": {
      "resourceType": "MedicationStatement",
      "meta": {
        "profile": [ "https://www.netzwerk-universitaetsmedizin.de/fhir/StructureDefinition/pharmacological-therapy" ]
      },
      "identifier": [ {
        "system": "https://mein.krankenhaus.de/fhir/NamingSystem/medicationstatementId",
        "value": "b7a2df6d8aa87cdf3496413a5a915ac9ff9727a13c97662b6862d6d8b0058cfc"
      } ],
      "status": "active",
      "medicationCodeableConcept": {
        "coding": [ {
          "system": "http://snomed.info/sct",
          "code": "385432009",
          "display": "Not applicable (qualifier value)"
        } ],
        "text": "<Freitext>"
      },
      "subject": {
        "reference": "Patient/f6ee5f3017cc35438708b106cdd30e8dae87cf64c8378e9ceb95ce94abf776ad"
      },
      "effectiveDateTime": "2020-04-17T21:08:00+00:00"
    },
    "request": {
      "method": "POST",
      "url": "MedicationStatement",
      "ifNoneExist": "identifier=https://mein.krankenhaus.de/fhir/NamingSystem/medicationstatementId|1cba826942402670a9a1957585a7d5647286bd7cea8f16385061bc64fcc4d240"
    }
  }, {
    "fullUrl": "MedicationStatement/e97ae03d0313478837acd39d399368eaee606b88370acbab3e98fc3ed8858410",
    "resource": {
      "resourceType": "MedicationStatement",
      "meta": {
        "profile": [ "https://www.netzwerk-universitaetsmedizin.de/fhir/StructureDefinition/pharmacological-therapy" ]
      },
      "identifier": [ {
        "system": "https://mein.krankenhaus.de/fhir/NamingSystem/medicationstatementId",
        "value": "f6dfdbf4ae61d17c97cbd02344277eb2eddd8de9ff94e8792d489746216f98ef"
      } ],
      "status": "stopped",
      "medicationCodeableConcept": {
        "coding": [ {
          "system": "http://snomed.info/sct",
          "code": "41549009"
        } ],
        "text": "ACE inhibitors"
      },
      "subject": {
        "reference": "Patient/f6ee5f3017cc35438708b106cdd30e8dae87cf64c8378e9ceb95ce94abf776ad"
      },
      "effectiveDateTime": "2020-04-17T21:08:00+00:00"
    },
    "request": {
      "method": "POST",
      "url": "MedicationStatement",
      "ifNoneExist": "identifier=https://mein.krankenhaus.de/fhir/NamingSystem/medicationstatementId|e97ae03d0313478837acd39d399368eaee606b88370acbab3e98fc3ed8858410"
    }
  }, {
    "fullUrl": "MedicationStatement/83144c224ce494205de4eb6df9171ed522f2f930abd8a0356c7f57299cd95f80",
    "resource": {
      "resourceType": "MedicationStatement",
      "meta": {
        "profile": [ "https://www.netzwerk-universitaetsmedizin.de/fhir/StructureDefinition/pharmacological-therapy" ]
      },
      "identifier": [ {
        "system": "https://mein.krankenhaus.de/fhir/NamingSystem/medicationstatementId",
        "value": "214067401f6081862d15ddb4e630e25d1fb8cca476e6e37406a28bc59a31e085"
      } ],
      "status": "unknown",
      "medicationCodeableConcept": {
        "coding": [ {
          "system": "http://snomed.info/sct",
          "code": "333710000"
        } ],
        "text": "immunoglobulins"
      },
      "subject": {
        "reference": "Patient/f6ee5f3017cc35438708b106cdd30e8dae87cf64c8378e9ceb95ce94abf776ad"
      },
      "effectiveDateTime": "2020-04-17T21:08:00+00:00"
    },
    "request": {
      "method": "POST",
      "url": "MedicationStatement",
      "ifNoneExist": "identifier=https://mein.krankenhaus.de/fhir/NamingSystem/medicationstatementId|83144c224ce494205de4eb6df9171ed522f2f930abd8a0356c7f57299cd95f80"
    }
  }, {
    "fullUrl": "MedicationStatement/83e2a8fbb1656d06cb1e3946f5e306eaa1518fe7f328fa15ec144f954b2ad712",
    "resource": {
      "resourceType": "MedicationStatement",
      "meta": {
        "profile": [ "https://www.netzwerk-universitaetsmedizin.de/fhir/StructureDefinition/pharmacological-therapy-anticoagulants" ]
      },
      "identifier": [ {
        "system": "https://mein.krankenhaus.de/fhir/NamingSystem/medicationstatementId",
        "value": "29826685c9d1bc3c4192b92e957abec38b5188fe365958d46bb3884933518033"
      } ],
      "status": "active",
      "medicationCodeableConcept": {
        "coding": [ {
          "system": "http://snomed.info/sct",
          "code": "81839001"
        }, {
          "system": "http://fhir.de/CodeSystem/dimdi/atc",
          "code": "B01AB01"
        } ]
      },
      "subject": {
        "reference": "Patient/f6ee5f3017cc35438708b106cdd30e8dae87cf64c8378e9ceb95ce94abf776ad"
      },
      "effectiveDateTime": "2020-04-17T21:08:00+00:00",
      "reasonCode": [ {
        "coding": [ {
          "system": "http://snomed.info/sct",
          "code": "373808002",
          "display": "Curative - procedure intent (qualifier value)"
        } ]
      } ]
    },
    "request": {
      "method": "POST",
      "url": "MedicationStatement",
      "ifNoneExist": "identifier=https://mein.krankenhaus.de/fhir/NamingSystem/medicationstatementId|83e2a8fbb1656d06cb1e3946f5e306eaa1518fe7f328fa15ec144f954b2ad712"
    }
  }, {
    "fullUrl": "MedicationStatement/cb51245c7699d8d54204f91b724e7090ca982dd9d4f99cd28c3fc56def4d9d48",
    "resource": {
      "resourceType": "MedicationStatement",
      "meta": {
        "profile": [ "https://www.netzwerk-universitaetsmedizin.de/fhir/StructureDefinition/pharmacological-therapy-anticoagulants" ]
      },
      "identifier": [ {
        "system": "https://mein.krankenhaus.de/fhir/NamingSystem/medicationstatementId",
        "value": "0371f912ade8a007df5ae5780b502b1c753ed6793634c1118eed66b70a5d192a"
      } ],
      "status": "active",
      "medicationCodeableConcept": {
        "coding": [ {
          "system": "http://snomed.info/sct",
          "code": "81839001"
        }, {
          "system": "http://fhir.de/CodeSystem/dimdi/atc",
          "code": "B01AB08"
        }, {
          "system": "http://fhir.de/CodeSystem/dimdi/atc",
          "code": "B01AB13"
        }, {
          "system": "http://fhir.de/CodeSystem/dimdi/atc",
          "code": "B01AB04"
        }, {
          "system": "http://fhir.de/CodeSystem/dimdi/atc",
          "code": "B01AB05"
        }, {
          "system": "http://fhir.de/CodeSystem/dimdi/atc",
          "code": "B01AB06"
        }, {
          "system": "http://fhir.de/CodeSystem/dimdi/atc",
          "code": "B01AB10"
        }, {
          "system": "http://fhir.de/CodeSystem/dimdi/atc",
          "code": "B01AB12"
        }, {
          "system": "http://fhir.de/CodeSystem/dimdi/atc",
          "code": "B01AB63"
        }, {
          "system": "http://fhir.de/CodeSystem/dimdi/atc",
          "code": "B01AB07"
        }, {
          "system": "http://fhir.de/CodeSystem/dimdi/atc",
          "code": "B01AB11"
        } ]
      },
      "subject": {
        "reference": "Patient/f6ee5f3017cc35438708b106cdd30e8dae87cf64c8378e9ceb95ce94abf776ad"
      },
      "effectiveDateTime": "2020-04-17T21:08:00+00:00",
      "reasonCode": [ {
        "coding": [ {
          "system": "http://snomed.info/sct",
          "code": "373808002",
          "display": "Curative - procedure intent (qualifier value)"
        } ]
      } ]
    },
    "request": {
      "method": "POST",
      "url": "MedicationStatement",
      "ifNoneExist": "identifier=https://mein.krankenhaus.de/fhir/NamingSystem/medicationstatementId|cb51245c7699d8d54204f91b724e7090ca982dd9d4f99cd28c3fc56def4d9d48"
    }
  }, {
    "fullUrl": "MedicationStatement/49cd57b7195e29fe64e2641ee5c1ee93d387e66dd392bc6db5426ee6a560bae9",
    "resource": {
      "resourceType": "MedicationStatement",
      "meta": {
        "profile": [ "https://www.netzwerk-universitaetsmedizin.de/fhir/StructureDefinition/pharmacological-therapy-anticoagulants" ]
      },
      "identifier": [ {
        "system": "https://mein.krankenhaus.de/fhir/NamingSystem/medicationstatementId",
        "value": "8798138cbdb308f376ee8708ff87d0a711f562a90b68b58263777fd38f0a678e"
      } ],
      "status": "unknown",
      "medicationCodeableConcept": {
        "coding": [ {
          "system": "http://snomed.info/sct",
          "code": "81839001"
        }, {
          "system": "http://fhir.de/CodeSystem/dimdi/atc",
          "code": "B01AE03"
        } ]
      },
      "subject": {
        "reference": "Patient/f6ee5f3017cc35438708b106cdd30e8dae87cf64c8378e9ceb95ce94abf776ad"
      },
      "effectiveDateTime": "2020-04-17T21:08:00+00:00",
      "reasonCode": [ {
        "coding": [ {
          "system": "http://snomed.info/sct",
          "code": "373808002",
          "display": "Curative - procedure intent (qualifier value)"
        } ]
      } ]
    },
    "request": {
      "method": "POST",
      "url": "MedicationStatement",
      "ifNoneExist": "identifier=https://mein.krankenhaus.de/fhir/NamingSystem/medicationstatementId|49cd57b7195e29fe64e2641ee5c1ee93d387e66dd392bc6db5426ee6a560bae9"
    }
  }, {
    "fullUrl": "MedicationStatement/18ff1bb3e9568bdf399153277c36a42a56a7bad67195242259a33656018f5e4d",
    "resource": {
      "resourceType": "MedicationStatement",
      "meta": {
        "profile": [ "https://www.netzwerk-universitaetsmedizin.de/fhir/StructureDefinition/pharmacological-therapy-anticoagulants" ]
      },
      "identifier": [ {
        "system": "https://mein.krankenhaus.de/fhir/NamingSystem/medicationstatementId",
        "value": "c133f7468309b46f23e4d38303acc858766aa2cff16708e5153e32d2bd1a28d3"
      } ],
      "status": "not-taken",
      "medicationCodeableConcept": {
        "coding": [ {
          "system": "http://snomed.info/sct",
          "code": "81839001"
        }, {
          "system": "http://fhir.de/CodeSystem/dimdi/atc",
          "code": "B01AC"
        } ]
      },
      "subject": {
        "reference": "Patient/f6ee5f3017cc35438708b106cdd30e8dae87cf64c8378e9ceb95ce94abf776ad"
      },
      "effectiveDateTime": "2020-04-17T21:08:00+00:00",
      "reasonCode": [ {
        "coding": [ {
          "system": "http://snomed.info/sct",
          "code": "373808002",
          "display": "Curative - procedure intent (qualifier value)"
        } ]
      } ]
    },
    "request": {
      "method": "POST",
      "url": "MedicationStatement",
      "ifNoneExist": "identifier=https://mein.krankenhaus.de/fhir/NamingSystem/medicationstatementId|18ff1bb3e9568bdf399153277c36a42a56a7bad67195242259a33656018f5e4d"
    }
  }, {
    "fullUrl": "MedicationStatement/713f73e61ce9502851c2fa92bf4170cd4cfe0c80586fd270a40d5a995e4dd52d",
    "resource": {
      "resourceType": "MedicationStatement",
      "meta": {
        "profile": [ "https://www.netzwerk-universitaetsmedizin.de/fhir/StructureDefinition/pharmacological-therapy-anticoagulants" ]
      },
      "identifier": [ {
        "system": "https://mein.krankenhaus.de/fhir/NamingSystem/medicationstatementId",
        "value": "9ed03394ed651d5c41f0398d1008fa12ed284c5b1c2b33963372f2ff780156ca"
      } ],
      "status": "not-taken",
      "medicationCodeableConcept": {
        "coding": [ {
          "system": "http://snomed.info/sct",
          "code": "81839001"
        }, {
          "system": "http://fhir.de/CodeSystem/dimdi/atc",
          "code": "B01AB09"
        } ]
      },
      "subject": {
        "reference": "Patient/f6ee5f3017cc35438708b106cdd30e8dae87cf64c8378e9ceb95ce94abf776ad"
      },
      "effectiveDateTime": "2020-04-17T21:08:00+00:00",
      "reasonCode": [ {
        "coding": [ {
          "system": "http://snomed.info/sct",
          "code": "373808002",
          "display": "Curative - procedure intent (qualifier value)"
        } ]
      } ]
    },
    "request": {
      "method": "POST",
      "url": "MedicationStatement",
      "ifNoneExist": "identifier=https://mein.krankenhaus.de/fhir/NamingSystem/medicationstatementId|713f73e61ce9502851c2fa92bf4170cd4cfe0c80586fd270a40d5a995e4dd52d"
    }
  }, {
    "fullUrl": "MedicationStatement/aeadd9e4502ff11be08ddec00aa2923501cda0ca12313d6875bdfeccbc155f39",
    "resource": {
      "resourceType": "MedicationStatement",
      "meta": {
        "profile": [ "https://www.netzwerk-universitaetsmedizin.de/fhir/StructureDefinition/pharmacological-therapy-anticoagulants" ]
      },
      "identifier": [ {
        "system": "https://mein.krankenhaus.de/fhir/NamingSystem/medicationstatementId",
        "value": "2eec246856fce51785e98006d2f43cf902cb729e091785c1c01d4a975aa653f6"
      } ],
      "status": "active",
      "medicationCodeableConcept": {
        "coding": [ {
          "system": "http://snomed.info/sct",
          "code": "81839001"
        }, {
          "system": "http://fhir.de/CodeSystem/dimdi/atc",
          "code": "B01AA04"
        } ]
      },
      "subject": {
        "reference": "Patient/f6ee5f3017cc35438708b106cdd30e8dae87cf64c8378e9ceb95ce94abf776ad"
      },
      "effectiveDateTime": "2020-04-17T21:08:00+00:00",
      "reasonCode": [ {
        "coding": [ {
          "system": "http://snomed.info/sct",
          "code": "373808002",
          "display": "Curative - procedure intent (qualifier value)"
        } ]
      } ]
    },
    "request": {
      "method": "POST",
      "url": "MedicationStatement",
      "ifNoneExist": "identifier=https://mein.krankenhaus.de/fhir/NamingSystem/medicationstatementId|aeadd9e4502ff11be08ddec00aa2923501cda0ca12313d6875bdfeccbc155f39"
    }
  }, {
    "fullUrl": "MedicationStatement/01852a969ff0e15d5ec9dcfa0adb9c371e6b33a81b4a03861e41178f7f521f6d",
    "resource": {
      "resourceType": "MedicationStatement",
      "meta": {
        "profile": [ "https://www.netzwerk-universitaetsmedizin.de/fhir/StructureDefinition/pharmacological-therapy-anticoagulants" ]
      },
      "identifier": [ {
        "system": "https://mein.krankenhaus.de/fhir/NamingSystem/medicationstatementId",
        "value": "253e36ec2faef5595614f3516bc2bcffadee674da0cb36480c1a8f6e4eddfc99"
      } ],
      "status": "unknown",
      "medicationCodeableConcept": {
        "coding": [ {
          "system": "http://snomed.info/sct",
          "code": "81839001"
        }, {
          "system": "http://fhir.de/CodeSystem/dimdi/atc",
          "code": "B01AE"
        }, {
          "system": "http://fhir.de/CodeSystem/dimdi/atc",
          "code": "B01AF"
        } ]
      },
      "subject": {
        "reference": "Patient/f6ee5f3017cc35438708b106cdd30e8dae87cf64c8378e9ceb95ce94abf776ad"
      },
      "effectiveDateTime": "2020-04-17T21:08:00+00:00",
      "reasonCode": [ {
        "coding": [ {
          "system": "http://snomed.info/sct",
          "code": "373808002",
          "display": "Curative - procedure intent (qualifier value)"
        } ]
      } ]
    },
    "request": {
      "method": "POST",
      "url": "MedicationStatement",
      "ifNoneExist": "identifier=https://mein.krankenhaus.de/fhir/NamingSystem/medicationstatementId|01852a969ff0e15d5ec9dcfa0adb9c371e6b33a81b4a03861e41178f7f521f6d"
    }
  }, {
    "fullUrl": "MedicationStatement/322c7bd50bf8b7faa96bcce7a652db0e5eb3b518a1a17f0cd6a1a5a683e433e4",
    "resource": {
      "resourceType": "MedicationStatement",
      "meta": {
        "profile": [ "https://www.netzwerk-universitaetsmedizin.de/fhir/StructureDefinition/pharmacological-therapy-anticoagulants" ]
      },
      "identifier": [ {
        "system": "https://mein.krankenhaus.de/fhir/NamingSystem/medicationstatementId",
        "value": "9bc4281cbc7c675824c5cf8f5dd3efd434f7e150cd26ebd6c707200945c58566"
      } ],
      "status": "not-taken",
      "medicationCodeableConcept": {
        "coding": [ {
          "system": "http://snomed.info/sct",
          "code": "81839001"
        } ]
      },
      "subject": {
        "reference": "Patient/f6ee5f3017cc35438708b106cdd30e8dae87cf64c8378e9ceb95ce94abf776ad"
      },
      "effectiveDateTime": "2020-04-17T21:08:00+00:00",
      "reasonCode": [ {
        "coding": [ {
          "system": "http://snomed.info/sct",
          "code": "373808002",
          "display": "Curative - procedure intent (qualifier value)"
        } ]
      } ]
    },
    "request": {
      "method": "POST",
      "url": "MedicationStatement",
      "ifNoneExist": "identifier=https://mein.krankenhaus.de/fhir/NamingSystem/medicationstatementId|322c7bd50bf8b7faa96bcce7a652db0e5eb3b518a1a17f0cd6a1a5a683e433e4"
    }
  }, {
    "fullUrl": "MedicationStatement/b26138c29ee53c23bce43910817275fd68a695e6a6ef28363bbf291db60d0231",
    "resource": {
      "resourceType": "MedicationStatement",
      "meta": {
        "profile": [ "https://www.netzwerk-universitaetsmedizin.de/fhir/StructureDefinition/pharmacological-therapy" ]
      },
      "identifier": [ {
        "system": "https://mein.krankenhaus.de/fhir/NamingSystem/medicationstatementId",
        "value": "6f6f95b98090165888008c0d9967663ea61413dd3c6d45143655c16e859192dd"
      } ],
      "status": "unknown",
      "medicationCodeableConcept": {
        "coding": [ {
          "system": "http://fhir.de/CodeSystem/dimdi/atc",
          "code": "N02B"
        }, {
          "system": "https://www.netzwerk-universitaetsmedizin.de/fhir/CodeSystem/ecrf-parameter-codes",
          "code": "antipyretic"
        } ]
      },
      "subject": {
        "reference": "Patient/f6ee5f3017cc35438708b106cdd30e8dae87cf64c8378e9ceb95ce94abf776ad"
      },
      "effectiveDateTime": "2020-01-30T15:32:00+00:00"
    },
    "request": {
      "method": "POST",
      "url": "MedicationStatement",
      "ifNoneExist": "identifier=https://mein.krankenhaus.de/fhir/NamingSystem/medicationstatementId|b26138c29ee53c23bce43910817275fd68a695e6a6ef28363bbf291db60d0231"
    }
  }, {
    "fullUrl": "MedicationStatement/d49b3ed370338d2ce8382ef12c0fcb928d65011216c9a72d7d1ddfbe4cd21c7d",
    "resource": {
      "resourceType": "MedicationStatement",
      "meta": {
        "profile": [ "https://www.netzwerk-universitaetsmedizin.de/fhir/StructureDefinition/pharmacological-therapy" ]
      },
      "identifier": [ {
        "system": "https://mein.krankenhaus.de/fhir/NamingSystem/medicationstatementId",
        "value": "1b9c686022583afbdea68220425d5ba1d2711f97efc3c7c2b2cf0fc197d2ca6a"
      } ],
      "status": "active",
      "medicationCodeableConcept": {
        "coding": [ {
          "system": "http://fhir.de/CodeSystem/dimdi/atc",
          "code": "G01B"
        } ]
      },
      "subject": {
        "reference": "Patient/f6ee5f3017cc35438708b106cdd30e8dae87cf64c8378e9ceb95ce94abf776ad"
      },
      "effectiveDateTime": "2020-01-30T15:32:00+00:00"
    },
    "request": {
      "method": "POST",
      "url": "MedicationStatement",
      "ifNoneExist": "identifier=https://mein.krankenhaus.de/fhir/NamingSystem/medicationstatementId|d49b3ed370338d2ce8382ef12c0fcb928d65011216c9a72d7d1ddfbe4cd21c7d"
    }
  }, {
    "fullUrl": "MedicationStatement/857e65f93752f90145ee65d9497a24c5fb323bfc8f32d2946f711341164ba4da",
    "resource": {
      "resourceType": "MedicationStatement",
      "meta": {
        "profile": [ "https://www.netzwerk-universitaetsmedizin.de/fhir/StructureDefinition/pharmacological-therapy" ]
      },
      "identifier": [ {
        "system": "https://mein.krankenhaus.de/fhir/NamingSystem/medicationstatementId",
        "value": "0dcc366aa23da6fab78ec965a7176c1569e171ee4ceec47a09b1c3c2e989ecea"
      } ],
      "status": "unknown",
      "medicationCodeableConcept": {
        "coding": [ {
          "system": "http://fhir.de/CodeSystem/dimdi/atc",
          "code": "J05AE08"
        }, {
          "system": "http://fhir.de/CodeSystem/dimdi/atc",
          "code": "J05AR15"
        }, {
          "system": "http://fhir.de/CodeSystem/dimdi/atc",
          "code": "J05AR23"
        }, {
          "system": "http://snomed.info/sct",
          "code": "413591007"
        } ]
      },
      "subject": {
        "reference": "Patient/f6ee5f3017cc35438708b106cdd30e8dae87cf64c8378e9ceb95ce94abf776ad"
      },
      "effectiveDateTime": "2020-01-30T15:32:00+00:00"
    },
    "request": {
      "method": "POST",
      "url": "MedicationStatement",
      "ifNoneExist": "identifier=https://mein.krankenhaus.de/fhir/NamingSystem/medicationstatementId|857e65f93752f90145ee65d9497a24c5fb323bfc8f32d2946f711341164ba4da"
    }
  }, {
    "fullUrl": "MedicationStatement/054fb4928a51636c7ab04d666ef4ba77b234dd54c9fd0a06b9b7a47b7bd5a377",
    "resource": {
      "resourceType": "MedicationStatement",
      "meta": {
        "profile": [ "https://www.netzwerk-universitaetsmedizin.de/fhir/StructureDefinition/pharmacological-therapy" ]
      },
      "identifier": [ {
        "system": "https://mein.krankenhaus.de/fhir/NamingSystem/medicationstatementId",
        "value": "b7c069f9ef93d63f30718f01fecf8b6c88c5c0c5d976c644b0877163061a49f1"
      } ],
      "status": "active",
      "medicationCodeableConcept": {
        "coding": [ {
          "system": "http://fhir.de/CodeSystem/dimdi/atc",
          "code": "J05AR14"
        } ]
      },
      "subject": {
        "reference": "Patient/f6ee5f3017cc35438708b106cdd30e8dae87cf64c8378e9ceb95ce94abf776ad"
      },
      "effectiveDateTime": "2020-01-30T15:32:00+00:00"
    },
    "request": {
      "method": "POST",
      "url": "MedicationStatement",
      "ifNoneExist": "identifier=https://mein.krankenhaus.de/fhir/NamingSystem/medicationstatementId|054fb4928a51636c7ab04d666ef4ba77b234dd54c9fd0a06b9b7a47b7bd5a377"
    }
  }, {
    "fullUrl": "MedicationStatement/81b00140737f78ad661b76f05b2cacc9ca809cea2bf53c4647ec77d8f6b50dcd",
    "resource": {
      "resourceType": "MedicationStatement",
      "meta": {
        "profile": [ "https://www.netzwerk-universitaetsmedizin.de/fhir/StructureDefinition/pharmacological-therapy" ]
      },
      "identifier": [ {
        "system": "https://mein.krankenhaus.de/fhir/NamingSystem/medicationstatementId",
        "value": "cd579b0328cffb92ec06968eaa6717cdb4febdbc378531fe92af1ee0e099c363"
      } ],
      "status": "not-taken",
      "medicationCodeableConcept": {
        "coding": [ {
          "system": "http://fhir.de/CodeSystem/dimdi/atc",
          "code": "P01BA01"
        }, {
          "system": "http://snomed.info/sct",
          "code": "14728000"
        } ]
      },
      "subject": {
        "reference": "Patient/f6ee5f3017cc35438708b106cdd30e8dae87cf64c8378e9ceb95ce94abf776ad"
      },
      "effectiveDateTime": "2020-01-30T15:32:00+00:00"
    },
    "request": {
      "method": "POST",
      "url": "MedicationStatement",
      "ifNoneExist": "identifier=https://mein.krankenhaus.de/fhir/NamingSystem/medicationstatementId|81b00140737f78ad661b76f05b2cacc9ca809cea2bf53c4647ec77d8f6b50dcd"
    }
  }, {
    "fullUrl": "MedicationStatement/27414a3103aaf4d30c8803d136391869300d0db4a2f296a31101556855fdef64",
    "resource": {
      "resourceType": "MedicationStatement",
      "meta": {
        "profile": [ "https://www.netzwerk-universitaetsmedizin.de/fhir/StructureDefinition/pharmacological-therapy" ]
      },
      "identifier": [ {
        "system": "https://mein.krankenhaus.de/fhir/NamingSystem/medicationstatementId",
        "value": "b9485c8d74900d87ebec7cab3ed1a03f2e2551b69104b6acbb747de1056094a0"
      } ],
      "status": "not-taken",
      "medicationCodeableConcept": {
        "coding": [ {
          "system": "http://fhir.de/CodeSystem/dimdi/atc",
          "code": "P01BA02"
        }, {
          "system": "http://snomed.info/sct",
          "code": "83490000"
        } ]
      },
      "subject": {
        "reference": "Patient/f6ee5f3017cc35438708b106cdd30e8dae87cf64c8378e9ceb95ce94abf776ad"
      },
      "effectiveDateTime": "2020-01-30T15:32:00+00:00"
    },
    "request": {
      "method": "POST",
      "url": "MedicationStatement",
      "ifNoneExist": "identifier=https://mein.krankenhaus.de/fhir/NamingSystem/medicationstatementId|27414a3103aaf4d30c8803d136391869300d0db4a2f296a31101556855fdef64"
    }
  }, {
    "fullUrl": "MedicationStatement/4af2739abe9084db1a54dbb0c70d1ad83f021796db0809033071ccde16b9f824",
    "resource": {
      "resourceType": "MedicationStatement",
      "meta": {
        "profile": [ "https://www.netzwerk-universitaetsmedizin.de/fhir/StructureDefinition/pharmacological-therapy" ]
      },
      "identifier": [ {
        "system": "https://mein.krankenhaus.de/fhir/NamingSystem/medicationstatementId",
        "value": "e0f1e4d0570c5e240884276d38202a86dec476e65b6bcb30f1da662d2b3dfba8"
      } ],
      "status": "not-taken",
      "medicationCodeableConcept": {
        "coding": [ {
          "system": "http://fhir.de/CodeSystem/dimdi/atc",
          "code": "D11AX22"
        }, {
          "system": "http://fhir.de/CodeSystem/dimdi/atc",
          "code": "P02CF01"
        }, {
          "system": "http://snomed.info/sct",
          "code": "96138006"
        } ]
      },
      "subject": {
        "reference": "Patient/f6ee5f3017cc35438708b106cdd30e8dae87cf64c8378e9ceb95ce94abf776ad"
      },
      "effectiveDateTime": "2020-01-30T15:32:00+00:00"
    },
    "request": {
      "method": "POST",
      "url": "MedicationStatement",
      "ifNoneExist": "identifier=https://mein.krankenhaus.de/fhir/NamingSystem/medicationstatementId|4af2739abe9084db1a54dbb0c70d1ad83f021796db0809033071ccde16b9f824"
    }
  }, {
    "fullUrl": "MedicationStatement/103c372d3412e7864d8d303e3398b8d1dcd0f5c071db7ec1211b9b11e9dca1a0",
    "resource": {
      "resourceType": "MedicationStatement",
      "meta": {
        "profile": [ "https://www.netzwerk-universitaetsmedizin.de/fhir/StructureDefinition/pharmacological-therapy" ]
      },
      "identifier": [ {
        "system": "https://mein.krankenhaus.de/fhir/NamingSystem/medicationstatementId",
        "value": "2d0bcc239140183f103ed1da40f4e916aeb759c4244c3ce3dc6427f689822830"
      } ],
      "status": "unknown",
      "medicationCodeableConcept": {
        "coding": [ {
          "system": "http://fhir.de/CodeSystem/dimdi/atc",
          "code": "J05AR10"
        }, {
          "system": "http://snomed.info/sct",
          "code": "134573001"
        } ]
      },
      "subject": {
        "reference": "Patient/f6ee5f3017cc35438708b106cdd30e8dae87cf64c8378e9ceb95ce94abf776ad"
      },
      "effectiveDateTime": "2020-01-30T15:32:00+00:00"
    },
    "request": {
      "method": "POST",
      "url": "MedicationStatement",
      "ifNoneExist": "identifier=https://mein.krankenhaus.de/fhir/NamingSystem/medicationstatementId|103c372d3412e7864d8d303e3398b8d1dcd0f5c071db7ec1211b9b11e9dca1a0"
    }
  }, {
    "fullUrl": "MedicationStatement/44ac501376d1402ebb87e3089a705b7555f747af2134eea5e8b2c9541183acc5",
    "resource": {
      "resourceType": "MedicationStatement",
      "meta": {
        "profile": [ "https://www.netzwerk-universitaetsmedizin.de/fhir/StructureDefinition/pharmacological-therapy" ]
      },
      "identifier": [ {
        "system": "https://mein.krankenhaus.de/fhir/NamingSystem/medicationstatementId",
        "value": "702d67078a4d193bad1b43b11802d51148ffa574727002813f82f38473a0be5d"
      } ],
      "status": "unknown",
      "medicationCodeableConcept": {
        "coding": [ {
          "system": "http://fhir.de/CodeSystem/dimdi/atc",
          "code": "J05AB06"
        }, {
          "system": "http://fhir.de/CodeSystem/dimdi/atc",
          "code": "S01AD09"
        }, {
          "system": "http://snomed.info/sct",
          "code": "78025001"
        } ]
      },
      "subject": {
        "reference": "Patient/f6ee5f3017cc35438708b106cdd30e8dae87cf64c8378e9ceb95ce94abf776ad"
      },
      "effectiveDateTime": "2020-01-30T15:32:00+00:00"
    },
    "request": {
      "method": "POST",
      "url": "MedicationStatement",
      "ifNoneExist": "identifier=https://mein.krankenhaus.de/fhir/NamingSystem/medicationstatementId|44ac501376d1402ebb87e3089a705b7555f747af2134eea5e8b2c9541183acc5"
    }
  }, {
    "fullUrl": "MedicationStatement/9c2294d2a9a64f25cb041aea9a374502691eb9497f5d620ecb49fbe12f18271e",
    "resource": {
      "resourceType": "MedicationStatement",
      "meta": {
        "profile": [ "https://www.netzwerk-universitaetsmedizin.de/fhir/StructureDefinition/pharmacological-therapy" ]
      },
      "identifier": [ {
        "system": "https://mein.krankenhaus.de/fhir/NamingSystem/medicationstatementId",
        "value": "9b2646d42c0d12b55f8a90bf6a8e36909197e8799b19060f84b45c38c4949ea1"
      } ],
      "status": "not-taken",
      "medicationCodeableConcept": {
        "coding": [ {
          "system": "http://fhir.de/CodeSystem/dimdi/atc",
          "code": "J05AH02"
        }, {
          "system": "http://snomed.info/sct",
          "code": "386142008"
        } ]
      },
      "subject": {
        "reference": "Patient/f6ee5f3017cc35438708b106cdd30e8dae87cf64c8378e9ceb95ce94abf776ad"
      },
      "effectiveDateTime": "2020-01-30T15:32:00+00:00"
    },
    "request": {
      "method": "POST",
      "url": "MedicationStatement",
      "ifNoneExist": "identifier=https://mein.krankenhaus.de/fhir/NamingSystem/medicationstatementId|9c2294d2a9a64f25cb041aea9a374502691eb9497f5d620ecb49fbe12f18271e"
    }
  }, {
    "fullUrl": "MedicationStatement/24c0caaf2332ff01b37692191a49628e84afa19b11b5de0d4d859565e56a8edb",
    "resource": {
      "resourceType": "MedicationStatement",
      "meta": {
        "profile": [ "https://www.netzwerk-universitaetsmedizin.de/fhir/StructureDefinition/pharmacological-therapy" ]
      },
      "identifier": [ {
        "system": "https://mein.krankenhaus.de/fhir/NamingSystem/medicationstatementId",
        "value": "63de3e44ea64d7d3b327aed6b2c29852f44ba5b7290b4bea05c33a85a657879e"
      } ],
      "status": "not-taken",
      "medicationCodeableConcept": {
        "coding": [ {
          "system": "http://fdasis.nlm.nih.gov",
          "code": "3QKI37EEHE"
        }, {
          "system": "http://snomed.info/sct",
          "code": "870518005"
        } ]
      },
      "subject": {
        "reference": "Patient/f6ee5f3017cc35438708b106cdd30e8dae87cf64c8378e9ceb95ce94abf776ad"
      },
      "effectiveDateTime": "2020-01-30T15:32:00+00:00"
    },
    "request": {
      "method": "POST",
      "url": "MedicationStatement",
      "ifNoneExist": "identifier=https://mein.krankenhaus.de/fhir/NamingSystem/medicationstatementId|24c0caaf2332ff01b37692191a49628e84afa19b11b5de0d4d859565e56a8edb"
    }
  }, {
    "fullUrl": "MedicationStatement/42be825b25e0caa5573033c06046121fe606b056a8434c88a6e0cf28cb179c8f",
    "resource": {
      "resourceType": "MedicationStatement",
      "meta": {
        "profile": [ "https://www.netzwerk-universitaetsmedizin.de/fhir/StructureDefinition/pharmacological-therapy" ]
      },
      "identifier": [ {
        "system": "https://mein.krankenhaus.de/fhir/NamingSystem/medicationstatementId",
        "value": "1b7ebd553e8885a2b29efe2114098aec352a32fbd7e9597303a79c0d0e365ba5"
      } ],
      "status": "not-taken",
      "medicationCodeableConcept": {
        "coding": [ {
          "system": "http://fhir.de/CodeSystem/dimdi/atc",
          "code": "J05AP01"
        }, {
          "system": "http://snomed.info/sct",
          "code": "35063004"
        } ]
      },
      "subject": {
        "reference": "Patient/f6ee5f3017cc35438708b106cdd30e8dae87cf64c8378e9ceb95ce94abf776ad"
      },
      "effectiveDateTime": "2020-01-30T15:32:00+00:00"
    },
    "request": {
      "method": "POST",
      "url": "MedicationStatement",
      "ifNoneExist": "identifier=https://mein.krankenhaus.de/fhir/NamingSystem/medicationstatementId|42be825b25e0caa5573033c06046121fe606b056a8434c88a6e0cf28cb179c8f"
    }
  }, {
    "fullUrl": "MedicationStatement/97a29847de3f1b16ab2fa37f14612d0c7d60ee65924bf25785ef6fb98c8190ff",
    "resource": {
      "resourceType": "MedicationStatement",
      "meta": {
        "profile": [ "https://www.netzwerk-universitaetsmedizin.de/fhir/StructureDefinition/pharmacological-therapy" ]
      },
      "identifier": [ {
        "system": "https://mein.krankenhaus.de/fhir/NamingSystem/medicationstatementId",
        "value": "3367a20d7ca25b715677f39bae4ccd9899e528f394815844ff61c99a8b4435c8"
      } ],
      "status": "active",
      "medicationCodeableConcept": {
        "coding": [ {
          "system": "http://fhir.de/CodeSystem/dimdi/atc",
          "code": "B02AB04"
        }, {
          "system": "https://www.netzwerk-universitaetsmedizin.de/fhir/CodeSystem/ecrf-parameter-codes",
          "code": "camostat"
        } ]
      },
      "subject": {
        "reference": "Patient/f6ee5f3017cc35438708b106cdd30e8dae87cf64c8378e9ceb95ce94abf776ad"
      },
      "effectiveDateTime": "2020-01-30T15:32:00+00:00"
    },
    "request": {
      "method": "POST",
      "url": "MedicationStatement",
      "ifNoneExist": "identifier=https://mein.krankenhaus.de/fhir/NamingSystem/medicationstatementId|97a29847de3f1b16ab2fa37f14612d0c7d60ee65924bf25785ef6fb98c8190ff"
    }
  }, {
    "fullUrl": "MedicationStatement/2fc7265dc9d035d9c76e34132118a28be58a5ce24d716ad21e0f5db10bf159f0",
    "resource": {
      "resourceType": "MedicationStatement",
      "meta": {
        "profile": [ "https://www.netzwerk-universitaetsmedizin.de/fhir/StructureDefinition/pharmacological-therapy" ]
      },
      "identifier": [ {
        "system": "https://mein.krankenhaus.de/fhir/NamingSystem/medicationstatementId",
        "value": "0572263310e959f26788ba3c49a6bb9a25518e663b6b4562ddf58e5533b30a23"
      } ],
      "status": "active",
      "medicationCodeableConcept": {
        "coding": [ {
          "system": "http://fhir.de/CodeSystem/dimdi/atc",
          "code": "J05AX27"
        }, {
          "system": "https://www.netzwerk-universitaetsmedizin.de/fhir/CodeSystem/ecrf-parameter-codes",
          "code": "favipiravir"
        } ]
      },
      "subject": {
        "reference": "Patient/f6ee5f3017cc35438708b106cdd30e8dae87cf64c8378e9ceb95ce94abf776ad"
      },
      "effectiveDateTime": "2020-01-30T15:32:00+00:00"
    },
    "request": {
      "method": "POST",
      "url": "MedicationStatement",
      "ifNoneExist": "identifier=https://mein.krankenhaus.de/fhir/NamingSystem/medicationstatementId|2fc7265dc9d035d9c76e34132118a28be58a5ce24d716ad21e0f5db10bf159f0"
    }
  }, {
    "fullUrl": "MedicationStatement/cac541c6d5e966263e1b6144e3c0e3d7aa4606485b98ec9047babc5e39e3bbe9",
    "resource": {
      "resourceType": "MedicationStatement",
      "meta": {
        "profile": [ "https://www.netzwerk-universitaetsmedizin.de/fhir/StructureDefinition/pharmacological-therapy" ]
      },
      "identifier": [ {
        "system": "https://mein.krankenhaus.de/fhir/NamingSystem/medicationstatementId",
        "value": "eb335e3dfeacdd62abb404a5499815c09e67701031992d3f552ea438c79daa5a"
      } ],
      "status": "not-taken",
      "medicationCodeableConcept": {
        "coding": [ {
          "system": "https://www.netzwerk-universitaetsmedizin.de/fhir/CodeSystem/ecrf-parameter-codes",
          "code": "steroids-gt"
        } ]
      },
      "subject": {
        "reference": "Patient/f6ee5f3017cc35438708b106cdd30e8dae87cf64c8378e9ceb95ce94abf776ad"
      },
      "effectiveDateTime": "2020-01-30T15:32:00+00:00"
    },
    "request": {
      "method": "POST",
      "url": "MedicationStatement",
      "ifNoneExist": "identifier=https://mein.krankenhaus.de/fhir/NamingSystem/medicationstatementId|cac541c6d5e966263e1b6144e3c0e3d7aa4606485b98ec9047babc5e39e3bbe9"
    }
  }, {
    "fullUrl": "MedicationStatement/06e1adf340271a9a25a44d5316882e652db8795782c6463f29b03f0452a4acb9",
    "resource": {
      "resourceType": "MedicationStatement",
      "meta": {
        "profile": [ "https://www.netzwerk-universitaetsmedizin.de/fhir/StructureDefinition/pharmacological-therapy" ]
      },
      "identifier": [ {
        "system": "https://mein.krankenhaus.de/fhir/NamingSystem/medicationstatementId",
        "value": "f4d7819b872c221498b7af6012159dc5ea7fc9fbd8f5f46f705fb2751f3c65e2"
      } ],
      "status": "active",
      "medicationCodeableConcept": {
        "coding": [ {
          "system": "http://fhir.de/CodeSystem/dimdi/ops",
          "code": "6-005.m"
        } ]
      },
      "subject": {
        "reference": "Patient/f6ee5f3017cc35438708b106cdd30e8dae87cf64c8378e9ceb95ce94abf776ad"
      },
      "effectiveDateTime": "2020-01-30T15:32:00+00:00"
    },
    "request": {
      "method": "POST",
      "url": "MedicationStatement",
      "ifNoneExist": "identifier=https://mein.krankenhaus.de/fhir/NamingSystem/medicationstatementId|06e1adf340271a9a25a44d5316882e652db8795782c6463f29b03f0452a4acb9"
    }
  }, {
    "fullUrl": "MedicationStatement/45799c7e0777a580512df00388a5262c6c36d82337caa3198fa9df6259663ccb",
    "resource": {
      "resourceType": "MedicationStatement",
      "meta": {
        "profile": [ "https://www.netzwerk-universitaetsmedizin.de/fhir/StructureDefinition/pharmacological-therapy" ]
      },
      "identifier": [ {
        "system": "https://mein.krankenhaus.de/fhir/NamingSystem/medicationstatementId",
        "value": "5ffb8a3ab4a064d0f18a66fb524b554733ebf5d1a8bcaf8660265f744810a8af"
      } ],
      "status": "not-taken",
      "medicationCodeableConcept": {
        "coding": [ {
          "system": "http://fhir.de/CodeSystem/dimdi/ops",
          "code": "6-00a.g"
        }, {
          "system": "http://fhir.de/CodeSystem/dimdi/atc",
          "code": "L04AC14"
        }, {
          "system": "http://snomed.info/sct",
          "code": "763522001"
        } ]
      },
      "subject": {
        "reference": "Patient/f6ee5f3017cc35438708b106cdd30e8dae87cf64c8378e9ceb95ce94abf776ad"
      },
      "effectiveDateTime": "2020-01-30T15:32:00+00:00"
    },
    "request": {
      "method": "POST",
      "url": "MedicationStatement",
      "ifNoneExist": "identifier=https://mein.krankenhaus.de/fhir/NamingSystem/medicationstatementId|45799c7e0777a580512df00388a5262c6c36d82337caa3198fa9df6259663ccb"
    }
  }, {
    "fullUrl": "MedicationStatement/e71cbea9565b8bc2e645c2576509252f8bbd9c270b260b5e38fa914b39f12a4a",
    "resource": {
      "resourceType": "MedicationStatement",
      "meta": {
        "profile": [ "https://www.netzwerk-universitaetsmedizin.de/fhir/StructureDefinition/pharmacological-therapy" ]
      },
      "identifier": [ {
        "system": "https://mein.krankenhaus.de/fhir/NamingSystem/medicationstatementId",
        "value": "e5e8cd3b37d6db937d5e881575565363bf761e0bb102f875db418d921c226f30"
      } ],
      "status": "active",
      "medicationCodeableConcept": {
        "coding": [ {
          "system": "http://fhir.de/CodeSystem/dimdi/atc",
          "code": "L01XE18"
        } ]
      },
      "subject": {
        "reference": "Patient/f6ee5f3017cc35438708b106cdd30e8dae87cf64c8378e9ceb95ce94abf776ad"
      },
      "effectiveDateTime": "2020-01-30T15:32:00+00:00"
    },
    "request": {
      "method": "POST",
      "url": "MedicationStatement",
      "ifNoneExist": "identifier=https://mein.krankenhaus.de/fhir/NamingSystem/medicationstatementId|e71cbea9565b8bc2e645c2576509252f8bbd9c270b260b5e38fa914b39f12a4a"
    }
  }, {
    "fullUrl": "MedicationStatement/cc21eee0524cbf5acfa568dd052181d61ca98b86a8d318a132b02bc0b3e13b02",
    "resource": {
      "resourceType": "MedicationStatement",
      "meta": {
        "profile": [ "https://www.netzwerk-universitaetsmedizin.de/fhir/StructureDefinition/pharmacological-therapy" ]
      },
      "identifier": [ {
        "system": "https://mein.krankenhaus.de/fhir/NamingSystem/medicationstatementId",
        "value": "cb867af7daee62411d541b5b177e08043784b64847c5097bb3f4efb424fc618c"
      } ],
      "status": "active",
      "medicationCodeableConcept": {
        "coding": [ {
          "system": "http://fhir.de/CodeSystem/dimdi/ops",
          "code": "6-005.7"
        } ]
      },
      "subject": {
        "reference": "Patient/f6ee5f3017cc35438708b106cdd30e8dae87cf64c8378e9ceb95ce94abf776ad"
      },
      "effectiveDateTime": "2020-01-30T15:32:00+00:00"
    },
    "request": {
      "method": "POST",
      "url": "MedicationStatement",
      "ifNoneExist": "identifier=https://mein.krankenhaus.de/fhir/NamingSystem/medicationstatementId|cc21eee0524cbf5acfa568dd052181d61ca98b86a8d318a132b02bc0b3e13b02"
    }
  }, {
    "fullUrl": "MedicationStatement/2a413e11781900da2c66c1838e14274c98237db7c4fcd49152195e55c60409f7",
    "resource": {
      "resourceType": "MedicationStatement",
      "meta": {
        "profile": [ "https://www.netzwerk-universitaetsmedizin.de/fhir/StructureDefinition/pharmacological-therapy" ]
      },
      "identifier": [ {
        "system": "https://mein.krankenhaus.de/fhir/NamingSystem/medicationstatementId",
        "value": "47381c24541e3566e81da9ccbca3e96fddf7941c4f1964df3140a2f15e3cce10"
      } ],
      "status": "active",
      "medicationCodeableConcept": {
        "coding": [ {
          "system": "http://fhir.de/CodeSystem/dimdi/ops",
          "code": "6-006.7"
        }, {
          "system": "http://fhir.de/CodeSystem/dimdi/atc",
          "code": "L04AC"
        }, {
          "system": "http://snomed.info/sct",
          "code": "430817009"
        } ]
      },
      "subject": {
        "reference": "Patient/f6ee5f3017cc35438708b106cdd30e8dae87cf64c8378e9ceb95ce94abf776ad"
      },
      "effectiveDateTime": "2020-01-30T15:32:00+00:00"
    },
    "request": {
      "method": "POST",
      "url": "MedicationStatement",
      "ifNoneExist": "identifier=https://mein.krankenhaus.de/fhir/NamingSystem/medicationstatementId|2a413e11781900da2c66c1838e14274c98237db7c4fcd49152195e55c60409f7"
    }
  }, {
    "fullUrl": "MedicationStatement/ad36e15c53a8442ec7ee2a802fbfa5d38c7a5647fe9d3e47f44e2cc064dae935",
    "resource": {
      "resourceType": "MedicationStatement",
      "meta": {
        "profile": [ "https://www.netzwerk-universitaetsmedizin.de/fhir/StructureDefinition/pharmacological-therapy" ]
      },
      "identifier": [ {
        "system": "https://mein.krankenhaus.de/fhir/NamingSystem/medicationstatementId",
        "value": "b1c70b04b2a74a63bc147c8c530b93f8feb71d08cb1007249e5fac31bc695140"
      } ],
      "status": "not-taken",
      "medicationCodeableConcept": {
        "coding": [ {
          "system": "http://fhir.de/CodeSystem/dimdi/ops",
          "code": "6-009.4"
        }, {
          "system": "http://snomed.info/sct",
          "code": "703779004"
        } ]
      },
      "subject": {
        "reference": "Patient/f6ee5f3017cc35438708b106cdd30e8dae87cf64c8378e9ceb95ce94abf776ad"
      },
      "effectiveDateTime": "2020-01-30T15:32:00+00:00"
    },
    "request": {
      "method": "POST",
      "url": "MedicationStatement",
      "ifNoneExist": "identifier=https://mein.krankenhaus.de/fhir/NamingSystem/medicationstatementId|ad36e15c53a8442ec7ee2a802fbfa5d38c7a5647fe9d3e47f44e2cc064dae935"
    }
  }, {
    "fullUrl": "MedicationStatement/ed38ffd342c50c6dea7b0333170a83ee1713d58cb930d8dc429d1bd55d1eeed6",
    "resource": {
      "resourceType": "MedicationStatement",
      "meta": {
        "profile": [ "https://www.netzwerk-universitaetsmedizin.de/fhir/StructureDefinition/pharmacological-therapy" ]
      },
      "identifier": [ {
        "system": "https://mein.krankenhaus.de/fhir/NamingSystem/medicationstatementId",
        "value": "dfe0025f3c9b9b8a90329bbc727e29be0abd10c480f244645e21dc9913bb02fd"
      } ],
      "status": "unknown",
      "medicationCodeableConcept": {
        "coding": [ {
          "system": "http://fhir.de/CodeSystem/dimdi/atc",
          "code": "M04AC01"
        }, {
          "system": "http://snomed.info/sct",
          "code": "73133000"
        } ]
      },
      "subject": {
        "reference": "Patient/f6ee5f3017cc35438708b106cdd30e8dae87cf64c8378e9ceb95ce94abf776ad"
      },
      "effectiveDateTime": "2020-01-30T15:32:00+00:00"
    },
    "request": {
      "method": "POST",
      "url": "MedicationStatement",
      "ifNoneExist": "identifier=https://mein.krankenhaus.de/fhir/NamingSystem/medicationstatementId|ed38ffd342c50c6dea7b0333170a83ee1713d58cb930d8dc429d1bd55d1eeed6"
    }
  }, {
    "fullUrl": "MedicationStatement/c1045223fd52e26f252fa110831eb5ebda6ba242505d636338d84870230bac00",
    "resource": {
      "resourceType": "MedicationStatement",
      "meta": {
        "profile": [ "https://www.netzwerk-universitaetsmedizin.de/fhir/StructureDefinition/pharmacological-therapy" ]
      },
      "identifier": [ {
        "system": "https://mein.krankenhaus.de/fhir/NamingSystem/medicationstatementId",
        "value": "69c6513d0d6fd847d511faa40adc13d2b182b7438fbeca137f6380ad4b9c46f8"
      } ],
      "status": "active",
      "medicationCodeableConcept": {
        "coding": [ {
          "system": "http://fhir.de/CodeSystem/dimdi/atc",
          "code": "S01AD05"
        }, {
          "system": "http://snomed.info/sct",
          "code": "768865007"
        } ]
      },
      "subject": {
        "reference": "Patient/f6ee5f3017cc35438708b106cdd30e8dae87cf64c8378e9ceb95ce94abf776ad"
      },
      "effectiveDateTime": "2020-01-30T15:32:00+00:00"
    },
    "request": {
      "method": "POST",
      "url": "MedicationStatement",
      "ifNoneExist": "identifier=https://mein.krankenhaus.de/fhir/NamingSystem/medicationstatementId|c1045223fd52e26f252fa110831eb5ebda6ba242505d636338d84870230bac00"
    }
  }, {
    "fullUrl": "MedicationStatement/e36fed7644966a93b3757991193421b0f85821b19484c0043c4a182cad7c4162",
    "resource": {
      "resourceType": "MedicationStatement",
      "meta": {
        "profile": [ "https://www.netzwerk-universitaetsmedizin.de/fhir/StructureDefinition/pharmacological-therapy" ]
      },
      "identifier": [ {
        "system": "https://mein.krankenhaus.de/fhir/NamingSystem/medicationstatementId",
        "value": "5a8eba9db2429e07a6dfa7125fa78d4ddbb9aec0ffd44267b6b48146bcf306ce"
      } ],
      "status": "not-taken",
      "medicationCodeableConcept": {
        "coding": [ {
          "system": "http://fhir.de/CodeSystem/dimdi/atc",
          "code": "A11CC06"
        }, {
          "system": "http://snomed.info/sct",
          "code": "88519001"
        } ]
      },
      "subject": {
        "reference": "Patient/f6ee5f3017cc35438708b106cdd30e8dae87cf64c8378e9ceb95ce94abf776ad"
      },
      "effectiveDateTime": "2020-01-30T15:32:00+00:00"
    },
    "request": {
      "method": "POST",
      "url": "MedicationStatement",
      "ifNoneExist": "identifier=https://mein.krankenhaus.de/fhir/NamingSystem/medicationstatementId|e36fed7644966a93b3757991193421b0f85821b19484c0043c4a182cad7c4162"
    }
  }, {
    "fullUrl": "MedicationStatement/de365ed7573e5f8257e57c3eba8849bf6de6f7a891c4d704fbb2f57a5f2eb39b",
    "resource": {
      "resourceType": "MedicationStatement",
      "meta": {
        "profile": [ "https://www.netzwerk-universitaetsmedizin.de/fhir/StructureDefinition/pharmacological-therapy" ]
      },
      "identifier": [ {
        "system": "https://mein.krankenhaus.de/fhir/NamingSystem/medicationstatementId",
        "value": "e5f4bbec12587b105beac41cef553635b128762f7cd58f5266b472b061a08aa9"
      } ],
      "status": "unknown",
      "medicationCodeableConcept": {
        "coding": [ {
          "system": "http://fhir.de/CodeSystem/dimdi/atc",
          "code": "A12CB"
        }, {
          "system": "http://snomed.info/sct",
          "code": "764877006"
        } ]
      },
      "subject": {
        "reference": "Patient/f6ee5f3017cc35438708b106cdd30e8dae87cf64c8378e9ceb95ce94abf776ad"
      },
      "effectiveDateTime": "2020-01-30T15:32:00+00:00"
    },
    "request": {
      "method": "POST",
      "url": "MedicationStatement",
      "ifNoneExist": "identifier=https://mein.krankenhaus.de/fhir/NamingSystem/medicationstatementId|de365ed7573e5f8257e57c3eba8849bf6de6f7a891c4d704fbb2f57a5f2eb39b"
    }
  }, {
    "fullUrl": "MedicationStatement/7a25daa8b4964892234b1f10cef88cf300e44bd297c881c3f5feb17d839a9e67",
    "resource": {
      "resourceType": "MedicationStatement",
      "meta": {
        "profile": [ "https://www.netzwerk-universitaetsmedizin.de/fhir/StructureDefinition/pharmacological-therapy" ]
      },
      "identifier": [ {
        "system": "https://mein.krankenhaus.de/fhir/NamingSystem/medicationstatementId",
        "value": "6bf92a08a7fc4f5c2edb425cf73ad58e780561b8888a2fe8bd8869815da73670"
      } ],
      "status": "stopped",
      "medicationCodeableConcept": {
        "coding": [ {
          "system": "http://snomed.info/sct",
          "code": "41549009"
        } ],
        "text": "ACE inhibitors"
      },
      "subject": {
        "reference": "Patient/f6ee5f3017cc35438708b106cdd30e8dae87cf64c8378e9ceb95ce94abf776ad"
      },
      "effectiveDateTime": "2020-01-30T15:32:00+00:00"
    },
    "request": {
      "method": "POST",
      "url": "MedicationStatement",
      "ifNoneExist": "identifier=https://mein.krankenhaus.de/fhir/NamingSystem/medicationstatementId|7a25daa8b4964892234b1f10cef88cf300e44bd297c881c3f5feb17d839a9e67"
    }
  }, {
    "fullUrl": "MedicationStatement/cdaed3d25fd364c40d25b5c6e1772c3a0402e0ea1ba7ea75ab5335f8d4e69087",
    "resource": {
      "resourceType": "MedicationStatement",
      "meta": {
        "profile": [ "https://www.netzwerk-universitaetsmedizin.de/fhir/StructureDefinition/pharmacological-therapy" ]
      },
      "identifier": [ {
        "system": "https://mein.krankenhaus.de/fhir/NamingSystem/medicationstatementId",
        "value": "cff6a1861edf1d008b4866457436e1504363280d69faa75967fd37ac76e28a1a"
      } ],
      "status": "active",
      "medicationCodeableConcept": {
        "coding": [ {
          "system": "http://snomed.info/sct",
          "code": "333710000"
        } ],
        "text": "immunoglobulins"
      },
      "subject": {
        "reference": "Patient/f6ee5f3017cc35438708b106cdd30e8dae87cf64c8378e9ceb95ce94abf776ad"
      },
      "effectiveDateTime": "2020-01-30T15:32:00+00:00"
    },
    "request": {
      "method": "POST",
      "url": "MedicationStatement",
      "ifNoneExist": "identifier=https://mein.krankenhaus.de/fhir/NamingSystem/medicationstatementId|cdaed3d25fd364c40d25b5c6e1772c3a0402e0ea1ba7ea75ab5335f8d4e69087"
    }
  }, {
    "fullUrl": "MedicationStatement/c6bb88f2ad931468dccd609e11ceda8ffbf373e7740ee469578e11e7bd8cd131",
    "resource": {
      "resourceType": "MedicationStatement",
      "meta": {
        "profile": [ "https://www.netzwerk-universitaetsmedizin.de/fhir/StructureDefinition/pharmacological-therapy-anticoagulants" ]
      },
      "identifier": [ {
        "system": "https://mein.krankenhaus.de/fhir/NamingSystem/medicationstatementId",
        "value": "f0b63ca4d4a2bc42e13eaceaae95e620330ec5ad930d27727df1d188c52cd3f8"
      } ],
      "status": "unknown",
      "medicationCodeableConcept": {
        "coding": [ {
          "system": "http://snomed.info/sct",
          "code": "81839001"
        }, {
          "system": "http://fhir.de/CodeSystem/dimdi/atc",
          "code": "B01AB08"
        }, {
          "system": "http://fhir.de/CodeSystem/dimdi/atc",
          "code": "B01AB13"
        }, {
          "system": "http://fhir.de/CodeSystem/dimdi/atc",
          "code": "B01AB04"
        }, {
          "system": "http://fhir.de/CodeSystem/dimdi/atc",
          "code": "B01AB05"
        }, {
          "system": "http://fhir.de/CodeSystem/dimdi/atc",
          "code": "B01AB06"
        }, {
          "system": "http://fhir.de/CodeSystem/dimdi/atc",
          "code": "B01AB10"
        }, {
          "system": "http://fhir.de/CodeSystem/dimdi/atc",
          "code": "B01AB12"
        }, {
          "system": "http://fhir.de/CodeSystem/dimdi/atc",
          "code": "B01AB63"
        }, {
          "system": "http://fhir.de/CodeSystem/dimdi/atc",
          "code": "B01AB07"
        }, {
          "system": "http://fhir.de/CodeSystem/dimdi/atc",
          "code": "B01AB11"
        } ]
      },
      "subject": {
        "reference": "Patient/f6ee5f3017cc35438708b106cdd30e8dae87cf64c8378e9ceb95ce94abf776ad"
      },
      "effectiveDateTime": "2020-01-30T15:32:00+00:00",
      "reasonCode": [ {
        "coding": [ {
          "system": "http://snomed.info/sct",
          "code": "373808002",
          "display": "Curative - procedure intent (qualifier value)"
        } ]
      } ]
    },
    "request": {
      "method": "POST",
      "url": "MedicationStatement",
      "ifNoneExist": "identifier=https://mein.krankenhaus.de/fhir/NamingSystem/medicationstatementId|c6bb88f2ad931468dccd609e11ceda8ffbf373e7740ee469578e11e7bd8cd131"
    }
  }, {
    "fullUrl": "MedicationStatement/c2a93b54f398aac76a36bdcc44842ecd378a574ef79a0bb5c11d2869f2cfb8a7",
    "resource": {
      "resourceType": "MedicationStatement",
      "meta": {
        "profile": [ "https://www.netzwerk-universitaetsmedizin.de/fhir/StructureDefinition/pharmacological-therapy-anticoagulants" ]
      },
      "identifier": [ {
        "system": "https://mein.krankenhaus.de/fhir/NamingSystem/medicationstatementId",
        "value": "aa39d3fc13c1fd4dfcb7d8bdeeaab862f9f185a4dfa88b17b9be5d0221619605"
      } ],
      "status": "active",
      "medicationCodeableConcept": {
        "coding": [ {
          "system": "http://snomed.info/sct",
          "code": "81839001"
        }, {
          "system": "http://fhir.de/CodeSystem/dimdi/atc",
          "code": "B01AE03"
        } ]
      },
      "subject": {
        "reference": "Patient/f6ee5f3017cc35438708b106cdd30e8dae87cf64c8378e9ceb95ce94abf776ad"
      },
      "effectiveDateTime": "2020-01-30T15:32:00+00:00",
      "reasonCode": [ {
        "coding": [ {
          "system": "http://snomed.info/sct",
          "code": "373808002",
          "display": "Curative - procedure intent (qualifier value)"
        } ]
      } ]
    },
    "request": {
      "method": "POST",
      "url": "MedicationStatement",
      "ifNoneExist": "identifier=https://mein.krankenhaus.de/fhir/NamingSystem/medicationstatementId|c2a93b54f398aac76a36bdcc44842ecd378a574ef79a0bb5c11d2869f2cfb8a7"
    }
  }, {
    "fullUrl": "MedicationStatement/f0fe767ac30c9cd5a9eb346c8354a2302d355a4dbd396d634a5eca2776b84e69",
    "resource": {
      "resourceType": "MedicationStatement",
      "meta": {
        "profile": [ "https://www.netzwerk-universitaetsmedizin.de/fhir/StructureDefinition/pharmacological-therapy-anticoagulants" ]
      },
      "identifier": [ {
        "system": "https://mein.krankenhaus.de/fhir/NamingSystem/medicationstatementId",
        "value": "d2a22bcc6f3557df0fa170e60fafcf46d5e42f01448c40e15998084f4ab6b498"
      } ],
      "status": "unknown",
      "medicationCodeableConcept": {
        "coding": [ {
          "system": "http://snomed.info/sct",
          "code": "81839001"
        }, {
          "system": "http://fhir.de/CodeSystem/dimdi/atc",
          "code": "B01AC"
        } ]
      },
      "subject": {
        "reference": "Patient/f6ee5f3017cc35438708b106cdd30e8dae87cf64c8378e9ceb95ce94abf776ad"
      },
      "effectiveDateTime": "2020-01-30T15:32:00+00:00",
      "reasonCode": [ {
        "coding": [ {
          "system": "http://snomed.info/sct",
          "code": "373808002",
          "display": "Curative - procedure intent (qualifier value)"
        } ]
      } ]
    },
    "request": {
      "method": "POST",
      "url": "MedicationStatement",
      "ifNoneExist": "identifier=https://mein.krankenhaus.de/fhir/NamingSystem/medicationstatementId|f0fe767ac30c9cd5a9eb346c8354a2302d355a4dbd396d634a5eca2776b84e69"
    }
  }, {
    "fullUrl": "MedicationStatement/a414ede69c0a523f7f5e161826b887f7520289ba74ad80687f6d2917bf616be2",
    "resource": {
      "resourceType": "MedicationStatement",
      "meta": {
        "profile": [ "https://www.netzwerk-universitaetsmedizin.de/fhir/StructureDefinition/pharmacological-therapy-anticoagulants" ]
      },
      "identifier": [ {
        "system": "https://mein.krankenhaus.de/fhir/NamingSystem/medicationstatementId",
        "value": "10191aae6418c95787ae78abcce20116265ddf78321d59260bc396fe4ee336ba"
      } ],
      "status": "not-taken",
      "medicationCodeableConcept": {
        "coding": [ {
          "system": "http://snomed.info/sct",
          "code": "81839001"
        }, {
          "system": "http://fhir.de/CodeSystem/dimdi/atc",
          "code": "B01AB09"
        } ]
      },
      "subject": {
        "reference": "Patient/f6ee5f3017cc35438708b106cdd30e8dae87cf64c8378e9ceb95ce94abf776ad"
      },
      "effectiveDateTime": "2020-01-30T15:32:00+00:00",
      "reasonCode": [ {
        "coding": [ {
          "system": "http://snomed.info/sct",
          "code": "373808002",
          "display": "Curative - procedure intent (qualifier value)"
        } ]
      } ]
    },
    "request": {
      "method": "POST",
      "url": "MedicationStatement",
      "ifNoneExist": "identifier=https://mein.krankenhaus.de/fhir/NamingSystem/medicationstatementId|a414ede69c0a523f7f5e161826b887f7520289ba74ad80687f6d2917bf616be2"
    }
  }, {
    "fullUrl": "MedicationStatement/17a2ed4f7fb34ef3fcf874db418aad15e0b566172c22a9b9b9cec91638678317",
    "resource": {
      "resourceType": "MedicationStatement",
      "meta": {
        "profile": [ "https://www.netzwerk-universitaetsmedizin.de/fhir/StructureDefinition/pharmacological-therapy-anticoagulants" ]
      },
      "identifier": [ {
        "system": "https://mein.krankenhaus.de/fhir/NamingSystem/medicationstatementId",
        "value": "9c61bdd1e9929c3ae2fbf132685b6ca51faebd87d0272d170fd3f2ec806dbb8c"
      } ],
      "status": "unknown",
      "medicationCodeableConcept": {
        "coding": [ {
          "system": "http://snomed.info/sct",
          "code": "81839001"
        }, {
          "system": "http://fhir.de/CodeSystem/dimdi/atc",
          "code": "B01AA04"
        } ]
      },
      "subject": {
        "reference": "Patient/f6ee5f3017cc35438708b106cdd30e8dae87cf64c8378e9ceb95ce94abf776ad"
      },
      "effectiveDateTime": "2020-01-30T15:32:00+00:00",
      "reasonCode": [ {
        "coding": [ {
          "system": "http://snomed.info/sct",
          "code": "373808002",
          "display": "Curative - procedure intent (qualifier value)"
        } ]
      } ]
    },
    "request": {
      "method": "POST",
      "url": "MedicationStatement",
      "ifNoneExist": "identifier=https://mein.krankenhaus.de/fhir/NamingSystem/medicationstatementId|17a2ed4f7fb34ef3fcf874db418aad15e0b566172c22a9b9b9cec91638678317"
    }
  }, {
    "fullUrl": "MedicationStatement/d3bec62f40cd0cd9fb276fd1cbd03ae49e299082338d39577b6bfafce605a9bf",
    "resource": {
      "resourceType": "MedicationStatement",
      "meta": {
        "profile": [ "https://www.netzwerk-universitaetsmedizin.de/fhir/StructureDefinition/pharmacological-therapy-anticoagulants" ]
      },
      "identifier": [ {
        "system": "https://mein.krankenhaus.de/fhir/NamingSystem/medicationstatementId",
        "value": "c0122e572dfcedd52bcf1cdcfdfc773ab2431d2e527a23cd025c5b38c511c76b"
      } ],
      "status": "active",
      "medicationCodeableConcept": {
        "coding": [ {
          "system": "http://snomed.info/sct",
          "code": "81839001"
        }, {
          "system": "http://fhir.de/CodeSystem/dimdi/atc",
          "code": "B01AF"
        } ]
      },
      "subject": {
        "reference": "Patient/f6ee5f3017cc35438708b106cdd30e8dae87cf64c8378e9ceb95ce94abf776ad"
      },
      "effectiveDateTime": "2020-01-30T15:32:00+00:00",
      "reasonCode": [ {
        "coding": [ {
          "system": "http://snomed.info/sct",
          "code": "373808002",
          "display": "Curative - procedure intent (qualifier value)"
        } ]
      } ]
    },
    "request": {
      "method": "POST",
      "url": "MedicationStatement",
      "ifNoneExist": "identifier=https://mein.krankenhaus.de/fhir/NamingSystem/medicationstatementId|d3bec62f40cd0cd9fb276fd1cbd03ae49e299082338d39577b6bfafce605a9bf"
    }
  }, {
    "fullUrl": "MedicationStatement/b1d0f38da7110471bc7fc4b93f3b93723ed225165c2fafd5a9f0d4a406e27747",
    "resource": {
      "resourceType": "MedicationStatement",
      "meta": {
        "profile": [ "https://www.netzwerk-universitaetsmedizin.de/fhir/StructureDefinition/pharmacological-therapy-anticoagulants" ]
      },
      "identifier": [ {
        "system": "https://mein.krankenhaus.de/fhir/NamingSystem/medicationstatementId",
        "value": "3f55d4ce9b3ac41c4ae8a55cf7cf565753d286a6077a48fb6ad6d64be101c71a"
      } ],
      "status": "active",
      "medicationCodeableConcept": {
        "coding": [ {
          "system": "http://snomed.info/sct",
          "code": "81839001"
        }, {
          "system": "http://snomed.info/sct",
          "code": "385432009",
          "display": "Not applicable (qualifier value)"
        } ]
      },
      "subject": {
        "reference": "Patient/f6ee5f3017cc35438708b106cdd30e8dae87cf64c8378e9ceb95ce94abf776ad"
      },
      "effectiveDateTime": "2020-01-30T15:32:00+00:00",
      "reasonCode": [ {
        "coding": [ {
          "system": "http://snomed.info/sct",
          "code": "373808002",
          "display": "Curative - procedure intent (qualifier value)"
        } ]
      } ]
    },
    "request": {
      "method": "POST",
      "url": "MedicationStatement",
      "ifNoneExist": "identifier=https://mein.krankenhaus.de/fhir/NamingSystem/medicationstatementId|b1d0f38da7110471bc7fc4b93f3b93723ed225165c2fafd5a9f0d4a406e27747"
    }
  }, {
    "fullUrl": "Observation/e16ef52998c594b9dd79dcddb10eac4b1634984720ac9fc6fa0dcd1292fbf43f",
    "resource": {
      "resourceType": "Observation",
      "meta": {
        "profile": [ "https://www.netzwerk-universitaetsmedizin.de/fhir/StructureDefinition/carbon-dioxide-partial-pressure" ]
      },
      "identifier": [ {
        "type": {
          "coding": [ {
            "system": "http://terminology.hl7.org/CodeSystem/v2-0203",
            "code": "OBI",
            "display": "Observation Instance Identifier"
          } ]
        },
        "system": "https://mein.krankenhaus.de/fhir/NamingSystem/observationId",
        "value": "52853be49039c85092318cf00a87482c4dd312ce53cc51c9be4a775345e904ee",
        "assigner": {
          "reference": "Organization/3a4f3433bce81181bad2d8e0b8fafccf7dc800bc06f29be73dcb38b750a48f9a"
        }
      } ],
      "status": "final",
      "category": [ {
        "coding": [ {
          "system": "http://terminology.hl7.org/CodeSystem/observation-category",
          "code": "laboratory",
          "display": "Laboratory"
        }, {
          "system": "http://loinc.org",
          "code": "26436-6",
          "display": "Laboratory studies (set)"
        }, {
          "system": "http://loinc.org",
          "code": "18767-4",
          "display": "Blood gas studies (set)"
        } ]
      } ],
      "code": {
        "coding": [ {
          "system": "http://loinc.org",
          "code": "11557-6"
        } ],
        "text": "Carbon dioxide [Partial pressure] in blood"
      },
      "subject": {
        "reference": "Patient/f6ee5f3017cc35438708b106cdd30e8dae87cf64c8378e9ceb95ce94abf776ad"
      },
      "encounter": {
        "reference": "Encounter/3d40a0eefcd3dcd2f282e1c696adf36a547ac80cb03017279011ea4f66e809c5"
      },
      "effectiveDateTime": "2020-12-03T16:05:00+00:00",
      "valueQuantity": {
        "value": 123,
        "unit": "mmHg",
        "system": "http://unitsofmeasure.org",
        "code": "mm[Hg]"
      }
    },
    "request": {
      "method": "POST",
      "url": "Observation",
      "ifNoneExist": "identifier=https://mein.krankenhaus.de/fhir/NamingSystem/observationId|e16ef52998c594b9dd79dcddb10eac4b1634984720ac9fc6fa0dcd1292fbf43f"
    }
  }, {
    "fullUrl": "Observation/0498c04b350970ca5d0199eb3137d920cb6c660140100b9ca6726daf401e8302",
    "resource": {
      "resourceType": "Observation",
      "meta": {
        "profile": [ "https://www.netzwerk-universitaetsmedizin.de/fhir/StructureDefinition/oxygen-partial-pressure" ]
      },
      "identifier": [ {
        "type": {
          "coding": [ {
            "system": "http://terminology.hl7.org/CodeSystem/v2-0203",
            "code": "OBI",
            "display": "Observation Instance Identifier"
          } ]
        },
        "system": "https://mein.krankenhaus.de/fhir/NamingSystem/observationId",
        "value": "a9cd601755afaf22c595fa768b5d7e9ef0e9bed4c64b8136b4a5e7491713f318",
        "assigner": {
          "reference": "Organization/3a4f3433bce81181bad2d8e0b8fafccf7dc800bc06f29be73dcb38b750a48f9a"
        }
      } ],
      "status": "final",
      "category": [ {
        "coding": [ {
          "system": "http://terminology.hl7.org/CodeSystem/observation-category",
          "code": "laboratory",
          "display": "Laboratory"
        }, {
          "system": "http://loinc.org",
          "code": "26436-6",
          "display": "Laboratory studies (set)"
        }, {
          "system": "http://loinc.org",
          "code": "18767-4",
          "display": "Blood gas studies (set)"
        } ]
      } ],
      "code": {
        "coding": [ {
          "system": "http://loinc.org",
          "code": "11557-8"
        } ],
        "text": "Oxygen [Partial pressure] in blood"
      },
      "subject": {
        "reference": "Patient/f6ee5f3017cc35438708b106cdd30e8dae87cf64c8378e9ceb95ce94abf776ad"
      },
      "encounter": {
        "reference": "Encounter/3d40a0eefcd3dcd2f282e1c696adf36a547ac80cb03017279011ea4f66e809c5"
      },
      "effectiveDateTime": "2020-12-03T16:05:00+00:00",
      "valueQuantity": {
        "value": 83,
        "unit": "mmHg",
        "system": "http://unitsofmeasure.org",
        "code": "mm[Hg]"
      }
    },
    "request": {
      "method": "POST",
      "url": "Observation",
      "ifNoneExist": "identifier=https://mein.krankenhaus.de/fhir/NamingSystem/observationId|0498c04b350970ca5d0199eb3137d920cb6c660140100b9ca6726daf401e8302"
    }
  }, {
    "fullUrl": "Observation/6d1342d9316beb717b6ac3ded5b7d3deebf4c66c40ecb2d86f092f7d8c397a90",
    "resource": {
      "resourceType": "Observation",
      "meta": {
        "profile": [ "https://www.netzwerk-universitaetsmedizin.de/fhir/StructureDefinition/inhaled-oxygen-concentration" ]
      },
      "identifier": [ {
        "type": {
          "coding": [ {
            "system": "http://terminology.hl7.org/CodeSystem/v2-0203",
            "code": "OBI",
            "display": "Observation Instance Identifier"
          } ]
        },
        "system": "https://mein.krankenhaus.de/fhir/NamingSystem/observationId",
        "value": "5c98b84bccc1e0e1f588b04037b6670756b9d4a393536967bccef33faa61ab37",
        "assigner": {
          "reference": "Organization/3a4f3433bce81181bad2d8e0b8fafccf7dc800bc06f29be73dcb38b750a48f9a"
        }
      } ],
      "status": "final",
      "category": [ {
        "coding": [ {
          "system": "http://terminology.hl7.org/CodeSystem/observation-category",
          "code": "laboratory",
          "display": "Laboratory"
        }, {
          "system": "http://loinc.org",
          "code": "26436-6",
          "display": "Laboratory studies (set)"
        }, {
          "system": "http://loinc.org",
          "code": "18767-4",
          "display": "Blood gas studies (set)"
        } ]
      } ],
      "code": {
        "coding": [ {
          "system": "http://loinc.org",
          "code": "3150-0"
        }, {
          "system": "http://snomed.info/sct",
          "code": "250774007"
        } ],
        "text": "Oxygen [Partial pressure] in blood"
      },
      "subject": {
        "reference": "Patient/f6ee5f3017cc35438708b106cdd30e8dae87cf64c8378e9ceb95ce94abf776ad"
      },
      "encounter": {
        "reference": "Encounter/3d40a0eefcd3dcd2f282e1c696adf36a547ac80cb03017279011ea4f66e809c5"
      },
      "effectiveDateTime": "2020-12-03T16:05:00+00:00",
      "valueQuantity": {
        "value": 27.96883423576161,
        "unit": "%",
        "system": "http://unitsofmeasure.org",
        "code": "%"
      }
    },
    "request": {
      "method": "POST",
      "url": "Observation",
      "ifNoneExist": "identifier=https://mein.krankenhaus.de/fhir/NamingSystem/observationId|6d1342d9316beb717b6ac3ded5b7d3deebf4c66c40ecb2d86f092f7d8c397a90"
    }
  }, {
    "fullUrl": "Observation/81866305878968e214fa3cfc220d32b863503039a19b2d4f06e8c876822d85ab",
    "resource": {
      "resourceType": "Observation",
      "meta": {
        "profile": [ "https://www.netzwerk-universitaetsmedizin.de/fhir/StructureDefinition/pH" ]
      },
      "identifier": [ {
        "type": {
          "coding": [ {
            "system": "http://terminology.hl7.org/CodeSystem/v2-0203",
            "code": "OBI",
            "display": "Observation Instance Identifier"
          } ]
        },
        "system": "https://mein.krankenhaus.de/fhir/NamingSystem/observationId",
        "value": "f79c8905818ca54a2db0542aa672788290bfd7723a7780531a045d0b04606715",
        "assigner": {
          "reference": "Organization/3a4f3433bce81181bad2d8e0b8fafccf7dc800bc06f29be73dcb38b750a48f9a"
        }
      } ],
      "status": "final",
      "category": [ {
        "coding": [ {
          "system": "http://terminology.hl7.org/CodeSystem/observation-category",
          "code": "laboratory",
          "display": "Laboratory"
        }, {
          "system": "http://loinc.org",
          "code": "26436-6",
          "display": "Laboratory studies (set)"
        }, {
          "system": "http://loinc.org",
          "code": "18767-4",
          "display": "Blood gas studies (set)"
        } ]
      } ],
      "code": {
        "coding": [ {
          "system": "http://loinc.org",
          "code": "11558-4"
        } ],
        "text": "pH of Blood"
      },
      "subject": {
        "reference": "Patient/f6ee5f3017cc35438708b106cdd30e8dae87cf64c8378e9ceb95ce94abf776ad"
      },
      "encounter": {
        "reference": "Encounter/3d40a0eefcd3dcd2f282e1c696adf36a547ac80cb03017279011ea4f66e809c5"
      },
      "effectiveDateTime": "2020-12-03T16:05:00+00:00",
      "valueQuantity": {
        "value": 0.8250119319710953,
        "unit": "pH",
        "system": "http://unitsofmeasure.org",
        "code": "[pH]"
      }
    },
    "request": {
      "method": "POST",
      "url": "Observation",
      "ifNoneExist": "identifier=https://mein.krankenhaus.de/fhir/NamingSystem/observationId|81866305878968e214fa3cfc220d32b863503039a19b2d4f06e8c876822d85ab"
    }
  }, {
    "fullUrl": "Observation/fb795db05950e570622144334b738671dcc3ad3f29c054e7c41d7d329759eae6",
    "resource": {
      "resourceType": "Observation",
      "meta": {
        "profile": [ "https://www.netzwerk-universitaetsmedizin.de/fhir/StructureDefinition/sofa-score" ]
      },
      "identifier": [ {
        "type": {
          "coding": [ {
            "system": "http://terminology.hl7.org/CodeSystem/v2-0203",
            "code": "OBI",
            "display": "Observation Instance Identifier"
          } ]
        },
        "system": "https://mein.krankenhaus.de/fhir/NamingSystem/observationId",
        "value": "eae97fc3ba9721650fc46333af69d78c8bd0e0621f46d798412cedc6215bf382",
        "assigner": {
          "reference": "Organization/3a4f3433bce81181bad2d8e0b8fafccf7dc800bc06f29be73dcb38b750a48f9a"
        }
      } ],
      "status": "final",
      "category": [ {
        "coding": [ {
          "system": "http://terminology.hl7.org/CodeSystem/observation-category",
          "code": "survey",
          "display": "Survey"
        } ]
      } ],
      "code": {
        "coding": [ {
          "system": "https://www.netzwerk-universitaetsmedizin.de/fhir/CodeSystem/ecrf-parameter-codes",
          "code": "06",
          "display": "SOFA-Score"
        } ],
        "text": "Sepsis-related organ failure assessment score"
      },
      "subject": {
        "reference": "Patient/f6ee5f3017cc35438708b106cdd30e8dae87cf64c8378e9ceb95ce94abf776ad"
      },
      "encounter": {
        "reference": "Encounter/3d40a0eefcd3dcd2f282e1c696adf36a547ac80cb03017279011ea4f66e809c5"
      },
      "effectiveDateTime": "2020-12-03T16:05:00+00:00",
      "valueInteger": 16,
      "component": [ {
        "code": {
          "coding": [ {
            "system": "https://www.netzwerk-universitaetsmedizin.de/fhir/CodeSystem/sofa-score",
            "code": "resp",
            "display": "Respiratory system"
          } ],
          "text": "SOFA Respiratory system scoring category"
        },
        "valueCodeableConcept": {
          "coding": [ {
            "system": "https://www.netzwerk-universitaetsmedizin.de/fhir/CodeSystem/sofa-score",
            "code": "resp4",
            "display": "Respiratory system SOFA score 4"
          } ],
          "text": "PaO2/FiO2 [mmHg (kPa)] < 100 (13.3) and mechanically ventilated"
        }
      }, {
        "code": {
          "coding": [ {
            "system": "https://www.netzwerk-universitaetsmedizin.de/fhir/CodeSystem/sofa-score",
            "code": "ns",
            "display": "Nervous system"
          } ],
          "text": "SOFA Nervous system scoring category"
        },
        "valueCodeableConcept": {
          "coding": [ {
            "system": "https://www.netzwerk-universitaetsmedizin.de/fhir/CodeSystem/sofa-score",
            "code": "ns2",
            "display": "Nervous system SOFA score 2"
          } ],
          "text": "Glasgow Coma Scale (GCS) 10-12"
        }
      }, {
        "code": {
          "coding": [ {
            "system": "https://www.netzwerk-universitaetsmedizin.de/fhir/CodeSystem/sofa-score",
            "code": "kid",
            "display": "Kidneys"
          } ],
          "text": "SOFA Kidneys scoring category"
        },
        "valueCodeableConcept": {
          "coding": [ {
            "system": "https://www.netzwerk-universitaetsmedizin.de/fhir/CodeSystem/sofa-score",
            "code": "kid3",
            "display": "Kidneys SOFA score 3"
          } ],
          "text": "Creatinine (mg/dl) [umol/L] (or urine output) 3.5-4.9 [300-440] (or < 500 ml/d)"
        }
      }, {
        "code": {
          "coding": [ {
            "system": "https://www.netzwerk-universitaetsmedizin.de/fhir/CodeSystem/sofa-score",
            "code": "cvs",
            "display": "Cardiovascular system"
          } ],
          "text": "SOFA Cardiovascular system scoring category"
        },
        "valueCodeableConcept": {
          "coding": [ {
            "system": "https://www.netzwerk-universitaetsmedizin.de/fhir/CodeSystem/sofa-score",
            "code": "cvs1",
            "display": "Cardiovascular system SOFA score 1"
          } ],
          "text": "Mean arterial pressure (definitions) < 70 mmHg"
        }
      }, {
        "code": {
          "coding": [ {
            "system": "https://www.netzwerk-universitaetsmedizin.de/fhir/CodeSystem/sofa-score",
            "code": "liv",
            "display": "Liver"
          } ],
          "text": "SOFA Liver scoring category"
        },
        "valueCodeableConcept": {
          "coding": [ {
            "system": "https://www.netzwerk-universitaetsmedizin.de/fhir/CodeSystem/sofa-score",
            "code": "liv4",
            "display": "Liver SOFA score 4"
          } ],
          "text": "Bilirubin (mg/dl) [umol/L] > 12.0 [> 204]"
        }
      }, {
        "code": {
          "coding": [ {
            "system": "https://www.netzwerk-universitaetsmedizin.de/fhir/CodeSystem/sofa-score",
            "code": "coa",
            "display": "Coagulation"
          } ],
          "text": "SOFA Coagulation scoring category"
        },
        "valueCodeableConcept": {
          "coding": [ {
            "system": "https://www.netzwerk-universitaetsmedizin.de/fhir/CodeSystem/sofa-score",
            "code": "coa2",
            "display": "Coagulation SOFA score 2"
          } ],
          "text": "Platelets10^3/ul < 100"
        }
      } ]
    },
    "request": {
      "method": "POST",
      "url": "Observation",
      "ifNoneExist": "identifier=https://mein.krankenhaus.de/fhir/NamingSystem/observationId|fb795db05950e570622144334b738671dcc3ad3f29c054e7c41d7d329759eae6"
    }
  }, {
    "fullUrl": "Observation/97a7364b0bafcaf0f4ecbd4e0a1fd3cfcd68d0029fbe57e264b6512a764c50d7",
    "resource": {
      "resourceType": "Observation",
      "meta": {
        "profile": [ "https://www.netzwerk-universitaetsmedizin.de/fhir/StructureDefinition/respiratory-rate" ]
      },
      "identifier": [ {
        "type": {
          "coding": [ {
            "system": "http://terminology.hl7.org/CodeSystem/v2-0203",
            "code": "OBI",
            "display": "Observation Instance Identifier"
          } ]
        },
        "system": "https://mein.krankenhaus.de/fhir/NamingSystem/observationId",
        "value": "bbdb3368cbe40a004aab750e952025b76f8a6f28fee242974f14b3e353bad9f9",
        "assigner": {
          "reference": "Organization/3a4f3433bce81181bad2d8e0b8fafccf7dc800bc06f29be73dcb38b750a48f9a"
        }
      } ],
      "status": "final",
      "category": [ {
        "coding": [ {
          "system": "http://terminology.hl7.org/CodeSystem/observation-category",
          "code": "vital-signs",
          "display": "Vital Signs"
        } ]
      } ],
      "code": {
        "coding": [ {
          "system": "http://loinc.org",
          "code": "9279-1"
        }, {
          "system": "http://snomed.info/sct",
          "code": "86290005"
        } ],
        "text": "Respiratory rate"
      },
      "subject": {
        "reference": "Patient/f6ee5f3017cc35438708b106cdd30e8dae87cf64c8378e9ceb95ce94abf776ad"
      },
      "encounter": {
        "reference": "Encounter/3d40a0eefcd3dcd2f282e1c696adf36a547ac80cb03017279011ea4f66e809c5"
      },
      "effectiveDateTime": "2020-12-03T16:05:00+00:00",
      "valueQuantity": {
        "value": 17,
        "unit": "per minute",
        "system": "http://unitsofmeasure.org",
        "code": "/min"
      }
    },
    "request": {
      "method": "POST",
      "url": "Observation",
      "ifNoneExist": "identifier=https://mein.krankenhaus.de/fhir/NamingSystem/observationId|97a7364b0bafcaf0f4ecbd4e0a1fd3cfcd68d0029fbe57e264b6512a764c50d7"
    }
  }, {
    "fullUrl": "Observation/7546383da45072d5976a558b5bd9b3da56f6b4fecf5140960c115ad97b800262",
    "resource": {
      "resourceType": "Observation",
      "meta": {
        "profile": [ "https://www.netzwerk-universitaetsmedizin.de/fhir/StructureDefinition/blood-pressure" ]
      },
      "identifier": [ {
        "type": {
          "coding": [ {
            "system": "http://terminology.hl7.org/CodeSystem/v2-0203",
            "code": "OBI",
            "display": "Observation Instance Identifier"
          } ]
        },
        "system": "https://mein.krankenhaus.de/fhir/NamingSystem/observationId",
        "value": "6b4b3e036ebbfab01c3a88ca29f1e8e37faca1c3f559406a1bcf67c83473cd6c",
        "assigner": {
          "reference": "Organization/3a4f3433bce81181bad2d8e0b8fafccf7dc800bc06f29be73dcb38b750a48f9a"
        }
      } ],
      "status": "final",
      "category": [ {
        "coding": [ {
          "system": "http://terminology.hl7.org/CodeSystem/observation-category",
          "code": "vital-signs",
          "display": "Vital Signs"
        } ]
      } ],
      "code": {
        "coding": [ {
          "system": "http://loinc.org",
          "code": "85354-9",
          "display": "Blood pressure panel with all children optional"
        }, {
          "system": "http://snomed.info/sct",
          "code": "75367002",
          "display": "Blood pressure (observable entity)"
        } ],
        "text": "Blood pressure"
      },
      "subject": {
        "reference": "Patient/f6ee5f3017cc35438708b106cdd30e8dae87cf64c8378e9ceb95ce94abf776ad"
      },
      "encounter": {
        "reference": "Encounter/3d40a0eefcd3dcd2f282e1c696adf36a547ac80cb03017279011ea4f66e809c5"
      },
      "effectiveDateTime": "2020-12-03T16:05:00+00:00",
      "component": [ {
        "code": {
          "coding": [ {
            "system": "http://loinc.org",
            "code": "8480-6"
          }, {
            "system": "http://snomed.info/sct",
            "code": "271649006"
          } ],
          "text": "Systolic blood pressure"
        },
        "valueQuantity": {
          "value": 94,
          "unit": "mmHg",
          "system": "http://unitsofmeasure.org",
          "code": "mm[Hg]"
        }
      }, {
        "code": {
          "coding": [ {
            "system": "http://loinc.org",
            "code": "8462-4"
          }, {
            "system": "http://snomed.info/sct",
            "code": "271650006"
          } ],
          "text": "Diastolic blood pressure"
        },
        "valueQuantity": {
          "value": 93,
          "unit": "mmHg",
          "system": "http://unitsofmeasure.org",
          "code": "mm[Hg]"
        }
      } ]
    },
    "request": {
      "method": "POST",
      "url": "Observation",
      "ifNoneExist": "identifier=https://mein.krankenhaus.de/fhir/NamingSystem/observationId|7546383da45072d5976a558b5bd9b3da56f6b4fecf5140960c115ad97b800262"
    }
  }, {
    "fullUrl": "Observation/7984c901eb092060d9d45fff3d5165612c6dc51055b7377ef8529e89544a3eec",
    "resource": {
      "resourceType": "Observation",
      "meta": {
        "profile": [ "https://www.netzwerk-universitaetsmedizin.de/fhir/StructureDefinition/heart-rate" ]
      },
      "identifier": [ {
        "type": {
          "coding": [ {
            "system": "http://terminology.hl7.org/CodeSystem/v2-0203",
            "code": "OBI",
            "display": "Observation Instance Identifier"
          } ]
        },
        "system": "https://mein.krankenhaus.de/fhir/NamingSystem/observationId",
        "value": "761a98392549c8622d36c5476c47245e435e3acc3c116af370a3e73535cbf959",
        "assigner": {
          "reference": "Organization/3a4f3433bce81181bad2d8e0b8fafccf7dc800bc06f29be73dcb38b750a48f9a"
        }
      } ],
      "status": "final",
      "category": [ {
        "coding": [ {
          "system": "http://terminology.hl7.org/CodeSystem/observation-category",
          "code": "vital-signs",
          "display": "Vital Signs"
        } ]
      } ],
      "code": {
        "coding": [ {
          "system": "http://loinc.org",
          "code": "8867-4"
        }, {
          "system": "http://snomed.info/sct",
          "code": "364075005"
        } ],
        "text": "Heart rate"
      },
      "subject": {
        "reference": "Patient/f6ee5f3017cc35438708b106cdd30e8dae87cf64c8378e9ceb95ce94abf776ad"
      },
      "encounter": {
        "reference": "Encounter/3d40a0eefcd3dcd2f282e1c696adf36a547ac80cb03017279011ea4f66e809c5"
      },
      "effectiveDateTime": "2020-12-03T16:05:00+00:00",
      "valueQuantity": {
        "value": 134,
        "unit": "per minute",
        "system": "http://unitsofmeasure.org",
        "code": "/min"
      }
    },
    "request": {
      "method": "POST",
      "url": "Observation",
      "ifNoneExist": "identifier=https://mein.krankenhaus.de/fhir/NamingSystem/observationId|7984c901eb092060d9d45fff3d5165612c6dc51055b7377ef8529e89544a3eec"
    }
  }, {
    "fullUrl": "Observation/d551a1a223c57c6016f9ce5be0af7a924f5a0d267b3dc922f816061a0de8b3d5",
    "resource": {
      "resourceType": "Observation",
      "meta": {
        "profile": [ "https://www.netzwerk-universitaetsmedizin.de/fhir/StructureDefinition/body-temperature" ]
      },
      "identifier": [ {
        "type": {
          "coding": [ {
            "system": "http://terminology.hl7.org/CodeSystem/v2-0203",
            "code": "OBI",
            "display": "Observation Instance Identifier"
          } ]
        },
        "system": "https://mein.krankenhaus.de/fhir/NamingSystem/observationId",
        "value": "98f0eb132757b6cc657cfb42e6d49517e3143ce102ae99932b6e1546cb9f4bbe",
        "assigner": {
          "reference": "Organization/3a4f3433bce81181bad2d8e0b8fafccf7dc800bc06f29be73dcb38b750a48f9a"
        }
      } ],
      "status": "final",
      "category": [ {
        "coding": [ {
          "system": "http://terminology.hl7.org/CodeSystem/observation-category",
          "code": "vital-signs",
          "display": "Vital Signs"
        } ]
      } ],
      "code": {
        "coding": [ {
          "system": "http://loinc.org",
          "code": "8310-5"
        }, {
          "system": "http://snomed.info/sct",
          "code": "386725007"
        } ],
        "text": "Body temperature"
      },
      "subject": {
        "reference": "Patient/f6ee5f3017cc35438708b106cdd30e8dae87cf64c8378e9ceb95ce94abf776ad"
      },
      "encounter": {
        "reference": "Encounter/3d40a0eefcd3dcd2f282e1c696adf36a547ac80cb03017279011ea4f66e809c5"
      },
      "effectiveDateTime": "2020-12-03T16:05:00+00:00",
      "valueQuantity": {
        "value": 39.11487303247637,
        "unit": "C",
        "system": "http://unitsofmeasure.org",
        "code": "Cel"
      }
    },
    "request": {
      "method": "POST",
      "url": "Observation",
      "ifNoneExist": "identifier=https://mein.krankenhaus.de/fhir/NamingSystem/observationId|d551a1a223c57c6016f9ce5be0af7a924f5a0d267b3dc922f816061a0de8b3d5"
    }
  }, {
    "fullUrl": "Observation/16e97ab756c929098fd6e52868205a7e8aa58e03562df72eebd551cfb6b11ad2",
    "resource": {
      "resourceType": "Observation",
      "meta": {
        "profile": [ "https://www.netzwerk-universitaetsmedizin.de/fhir/StructureDefinition/oxygen-saturation" ]
      },
      "identifier": [ {
        "type": {
          "coding": [ {
            "system": "http://terminology.hl7.org/CodeSystem/v2-0203",
            "code": "OBI",
            "display": "Observation Instance Identifier"
          } ]
        },
        "system": "https://mein.krankenhaus.de/fhir/NamingSystem/observationId",
        "value": "f68554770a58167e107de192c079940beb8da78c6ec4e9749b1414cfe5308395",
        "assigner": {
          "reference": "Organization/3a4f3433bce81181bad2d8e0b8fafccf7dc800bc06f29be73dcb38b750a48f9a"
        }
      } ],
      "status": "final",
      "category": [ {
        "coding": [ {
          "system": "http://terminology.hl7.org/CodeSystem/observation-category",
          "code": "vital-signs",
          "display": "Vital Signs"
        } ]
      } ],
      "code": {
        "coding": [ {
          "system": "http://loinc.org",
          "code": "2708-6"
        }, {
          "system": "http://loinc.org",
          "code": "59408-5"
        }, {
          "system": "http://loinc.org",
          "code": "20564-1"
        }, {
          "system": "http://snomed.info/sct",
          "code": "431314004"
        } ],
        "text": "Oxygen saturation in Arterial blood"
      },
      "subject": {
        "reference": "Patient/f6ee5f3017cc35438708b106cdd30e8dae87cf64c8378e9ceb95ce94abf776ad"
      },
      "encounter": {
        "reference": "Encounter/3d40a0eefcd3dcd2f282e1c696adf36a547ac80cb03017279011ea4f66e809c5"
      },
      "effectiveDateTime": "2020-12-03T16:05:00+00:00",
      "valueQuantity": {
        "value": 74,
        "unit": "%",
        "system": "http://unitsofmeasure.org",
        "code": "%"
      }
    },
    "request": {
      "method": "POST",
      "url": "Observation",
      "ifNoneExist": "identifier=https://mein.krankenhaus.de/fhir/NamingSystem/observationId|16e97ab756c929098fd6e52868205a7e8aa58e03562df72eebd551cfb6b11ad2"
    }
  }, {
    "fullUrl": "Observation/b7759acbc0c928664296286a7fecd4c18e4cc0d224bf7c2beb3a7310ac9d193b",
    "resource": {
      "resourceType": "Observation",
      "meta": {
        "profile": [ "https://www.netzwerk-universitaetsmedizin.de/fhir/StructureDefinition/study-inclusion-covid-19" ]
      },
      "identifier": [ {
        "type": {
          "coding": [ {
            "system": "http://terminology.hl7.org/CodeSystem/v2-0203",
            "code": "OBI",
            "display": "Observation Instance Identifier"
          } ]
        },
        "system": "https://mein.krankenhaus.de/fhir/NamingSystem/observationId",
        "value": "ae155163375eef11be353bf1da0190ad299b525b62ec74e8124a848bc5f9dace",
        "assigner": {
          "reference": "Organization/3a4f3433bce81181bad2d8e0b8fafccf7dc800bc06f29be73dcb38b750a48f9a"
        }
      } ],
      "status": "final",
      "category": [ {
        "coding": [ {
          "system": "http://terminology.hl7.org/CodeSystem/observation-category",
          "code": "survey",
          "display": "Survey"
        } ]
      } ],
      "code": {
        "coding": [ {
          "system": "https://www.netzwerk-universitaetsmedizin.de/fhir/CodeSystem/ecrf-parameter-codes",
          "code": "02",
          "display": "Study inclusion due to Covid-19"
        } ],
        "text": "Confirmed Covid-19 diagnosis as main reason for enrolment in the study"
      },
      "subject": {
        "reference": "Patient/f6ee5f3017cc35438708b106cdd30e8dae87cf64c8378e9ceb95ce94abf776ad"
      },
      "_effectiveDateTime": {
        "extension": [ {
          "url": "http://hl7.org/fhir/StructureDefinition/data-absent-reason",
          "valueCode": "unknown"
        } ]
      },
      "valueCodeableConcept": {
        "coding": [ {
          "system": "http://snomed.info/sct",
          "code": "261665006"
        } ]
      }
    },
    "request": {
      "method": "POST",
      "url": "Observation",
      "ifNoneExist": "identifier=https://mein.krankenhaus.de/fhir/NamingSystem/observationId|b7759acbc0c928664296286a7fecd4c18e4cc0d224bf7c2beb3a7310ac9d193b"
    }
  }, {
    "fullUrl": "Observation/0ba574b77bff30868b209cce5de13e6f32c65bad920d8d3236a691608d67635c",
    "resource": {
      "resourceType": "Observation",
      "meta": {
        "profile": [ "https://www.netzwerk-universitaetsmedizin.de/fhir/StructureDefinition/interventional-clinical-trial-participation" ]
      },
      "identifier": [ {
        "type": {
          "coding": [ {
            "system": "http://terminology.hl7.org/CodeSystem/v2-0203",
            "code": "OBI",
            "display": "Observation Instance Identifier"
          } ]
        },
        "system": "https://mein.krankenhaus.de/fhir/NamingSystem/observationId",
        "value": "d94d061a4633702fcf47a7b964fef5db65a4559fb5efb3bdc0d84369904499c3",
        "assigner": {
          "reference": "Organization/3a4f3433bce81181bad2d8e0b8fafccf7dc800bc06f29be73dcb38b750a48f9a"
        }
      } ],
      "status": "final",
      "category": [ {
        "coding": [ {
          "system": "http://terminology.hl7.org/CodeSystem/observation-category",
          "code": "survey",
          "display": "Survey"
        } ]
      } ],
      "code": {
        "coding": [ {
          "system": "https://www.netzwerk-universitaetsmedizin.de/fhir/CodeSystem/ecrf-parameter-codes",
          "code": "03",
          "display": "Participation in interventional clinical trials"
        } ],
        "text": "Has the patient participated in one or more interventional clinical trials?"
      },
      "subject": {
        "reference": "Patient/f6ee5f3017cc35438708b106cdd30e8dae87cf64c8378e9ceb95ce94abf776ad"
      },
      "_effectiveDateTime": {
        "extension": [ {
          "url": "http://hl7.org/fhir/StructureDefinition/data-absent-reason",
          "valueCode": "unknown"
        } ]
      },
      "valueCodeableConcept": {
        "coding": [ {
          "system": "http://snomed.info/sct",
          "code": "373066001"
        } ]
      }
    },
    "request": {
      "method": "POST",
      "url": "Observation",
      "ifNoneExist": "identifier=https://mein.krankenhaus.de/fhir/NamingSystem/observationId|0ba574b77bff30868b209cce5de13e6f32c65bad920d8d3236a691608d67635c"
    }
  } ]
}