{
  "resourceType": "Bundle",
  "meta": {
    "profile": [ "https://www.netzwerk-universitaetsmedizin.de/fhir/StructureDefinition/gecco-bundle" ]
  },
  "type": "transaction",
  "entry": [ {
    "fullUrl": "Patient/88f1c3d8fe502d936d77a0e85e0a956c89e8d2df685d0320b8988b12607eab08",
    "resource": {
      "resourceType": "Patient",
      "meta": {
        "profile": [ "https://www.netzwerk-universitaetsmedizin.de/fhir/StructureDefinition/Patient" ]
      },
      "extension": [ {
        "url": "https://www.netzwerk-universitaetsmedizin.de/fhir/StructureDefinition/age",
        "extension": [ {
          "url": "dateTimeOfDocumentation",
          "_valueDateTime": {
            "extension": [ {
              "url": "http://hl7.org/fhir/StructureDefinition/data-absent-reason",
              "valueCode": "unknown"
            } ]
          }
        }, {
          "url": "age",
          "valueAge": {
            "value": 23,
            "unit": "years",
            "system": "http://unitsofmeasure.org",
            "code": "a"
          }
        } ]
      }, {
        "url": "https://www.netzwerk-universitaetsmedizin.de/fhir/StructureDefinition/ethnic-group",
        "valueCoding": {
          "system": "urn:oid:2.16.840.1.113883.6.238",
          "code": "2135-2"
        }
      } ],
      "identifier": [ {
        "type": {
          "coding": [ {
            "system": "http://terminology.hl7.org/CodeSystem/v2-0203",
            "code": "MR"
          } ]
        },
        "system": "https://mein.krankenhaus.de/fhir/NamingSystem/patientId",
        "value": "synthetic_patient_689598020",
        "assigner": {
          "reference": "Organization/3a4f3433bce81181bad2d8e0b8fafccf7dc800bc06f29be73dcb38b750a48f9a"
        }
      } ],
      "birthDate": "1998-06-11"
    },
    "request": {
      "method": "POST",
      "url": "Patient",
      "ifNoneExist": "identifier=https://mein.krankenhaus.de/fhir/NamingSystem/patientId|88f1c3d8fe502d936d77a0e85e0a956c89e8d2df685d0320b8988b12607eab08"
    }
  }, {
    "fullUrl": "Organization/3a4f3433bce81181bad2d8e0b8fafccf7dc800bc06f29be73dcb38b750a48f9a",
    "resource": {
      "resourceType": "Organization",
      "name": "Mein Krankenhaus"
    },
    "request": {
      "method": "POST",
      "url": "Organization",
      "ifNoneExist": "identifier=null|3a4f3433bce81181bad2d8e0b8fafccf7dc800bc06f29be73dcb38b750a48f9a"
    }
  }, {
    "fullUrl": "Encounter/876cf466be82975fad227ac0d34fc28127c5590e8927ab0e4cbc01a3a683cea9",
    "resource": {
      "resourceType": "Encounter",
      "identifier": [ {
        "system": "https://mein.krankenhaus.de/fhir/NamingSystem/encounterId",
        "value": "7a1353381c7d617a37c3cfeaae9ed842ddd4b8b5be33bbb6c9cb3cc21cc0d1da",
        "assigner": {
          "reference": "Organization/3a4f3433bce81181bad2d8e0b8fafccf7dc800bc06f29be73dcb38b750a48f9a"
        }
      } ],
      "status": "unknown",
      "class": {
        "system": "http://terminology.hl7.org/CodeSystem/v3-ActCode",
        "code": "IMP",
        "display": "inpatient encounter"
      },
      "subject": {
        "reference": "Patient/88f1c3d8fe502d936d77a0e85e0a956c89e8d2df685d0320b8988b12607eab08"
      }
    },
    "request": {
      "method": "POST",
      "url": "Encounter",
      "ifNoneExist": "identifier=https://mein.krankenhaus.de/fhir/NamingSystem/encounterId|876cf466be82975fad227ac0d34fc28127c5590e8927ab0e4cbc01a3a683cea9"
    }
  }, {
    "fullUrl": "Condition/8b08674001cda7fb6f2c242ac49251ce9cd5ac22a83c11991f37d35b1825566d",
    "resource": {
      "resourceType": "Condition",
      "meta": {
        "profile": [ "https://www.netzwerk-universitaetsmedizin.de/fhir/StructureDefinition/diagnosis-covid-19" ]
      },
      "identifier": [ {
        "system": "https://mein.krankenhaus.de/fhir/NamingSystem/conditionId",
        "value": "880abe0ae1d662f27f95ac8686aed96e1e5dbf2dfdda1eed12c80f7982421417"
      } ],
      "clinicalStatus": {
        "coding": [ {
          "system": "http://terminology.hl7.org/CodeSystem/condition-clinical",
          "code": "active",
          "display": "Active"
        } ]
      },
      "verificationStatus": {
        "coding": [ {
          "system": "http://terminology.hl7.org/CodeSystem/condition-ver-status",
          "code": "confirmed",
          "display": "Confirmed"
        }, {
          "system": "http://snomed.info/sct",
          "code": "410605003",
          "display": "Confirmed present (qualifier value)"
        } ]
      },
      "category": [ {
        "coding": [ {
          "system": "http://snomed.info/sct",
          "code": "394807007",
          "display": "Infectious diseases (specialty) (qualifier value)"
        } ]
      } ],
      "code": {
        "coding": [ {
          "system": "http://snomed.info/sct",
          "code": "840539006",
          "display": "Disease caused by Severe acute respiratory syndrome coronavirus 2 (disorder)"
        } ]
      },
      "subject": {
        "reference": "Patient/88f1c3d8fe502d936d77a0e85e0a956c89e8d2df685d0320b8988b12607eab08"
      },
      "encounter": {
        "reference": "Encounter/876cf466be82975fad227ac0d34fc28127c5590e8927ab0e4cbc01a3a683cea9"
      },
      "_recordedDate": {
        "extension": [ {
          "url": "http://hl7.org/fhir/StructureDefinition/data-absent-reason",
          "valueCode": "unknown"
        } ]
      },
      "stage": [ {
        "summary": {
          "coding": [ {
            "system": "http://snomed.info/sct",
            "code": "277022003"
          } ]
        },
        "type": {
          "coding": [ {
            "system": "http://loinc.org",
            "code": "88859-4"
          } ]
        }
      } ]
    },
    "request": {
      "method": "POST",
      "url": "Condition",
      "ifNoneExist": "identifier=https://mein.krankenhaus.de/fhir/NamingSystem/conditionId|8b08674001cda7fb6f2c242ac49251ce9cd5ac22a83c11991f37d35b1825566d"
    }
  }, {
    "fullUrl": "Condition/ac4a37341f0090e41d34f8b627a0b38f8cf31303be1bd32219fec4738a9f80bf",
    "resource": {
      "resourceType": "Condition",
      "meta": {
        "profile": [ "https://www.netzwerk-universitaetsmedizin.de/fhir/StructureDefinition/chronic-lung-diseases" ]
      },
      "identifier": [ {
        "system": "https://mein.krankenhaus.de/fhir/NamingSystem/conditionId",
        "value": "abd2da6f4efcdaf16c381c993abd2a0719bf35b9b4debb3660435ff02fcf77ad"
      } ],
      "clinicalStatus": {
        "coding": [ {
          "system": "http://terminology.hl7.org/CodeSystem/condition-clinical",
          "code": "active",
          "display": "Active"
        } ]
      },
      "verificationStatus": {
        "coding": [ {
          "system": "http://terminology.hl7.org/CodeSystem/condition-ver-status",
          "code": "confirmed",
          "display": "Confirmed"
        }, {
          "system": "http://snomed.info/sct",
          "code": "410605003",
          "display": "Confirmed present (qualifier value)"
        } ]
      },
      "category": [ {
        "coding": [ {
          "system": "http://snomed.info/sct",
          "code": "418112009",
          "display": "Pulmonary medicine (qualifier value)"
        } ]
      } ],
      "code": {
        "coding": [ {
          "system": "http://fhir.de/CodeSystem/dimdi/icd-10-gm",
          "version": "2021",
          "code": "J45.9"
        }, {
          "system": "http://snomed.info/sct",
          "code": "195967001"
        } ]
      },
      "subject": {
        "reference": "Patient/88f1c3d8fe502d936d77a0e85e0a956c89e8d2df685d0320b8988b12607eab08"
      },
      "encounter": {
        "reference": "Encounter/876cf466be82975fad227ac0d34fc28127c5590e8927ab0e4cbc01a3a683cea9"
      },
      "_recordedDate": {
        "extension": [ {
          "url": "http://hl7.org/fhir/StructureDefinition/data-absent-reason",
          "valueCode": "unknown"
        } ]
      }
    },
    "request": {
      "method": "POST",
      "url": "Condition",
      "ifNoneExist": "identifier=https://mein.krankenhaus.de/fhir/NamingSystem/conditionId|ac4a37341f0090e41d34f8b627a0b38f8cf31303be1bd32219fec4738a9f80bf"
    }
  }, {
    "fullUrl": "Condition/45896e407ab2f3bbf52b0a9126ca4cfbb11d7bc6965e3b84061418a9b1cbcef7",
    "resource": {
      "resourceType": "Condition",
      "meta": {
        "profile": [ "https://www.netzwerk-universitaetsmedizin.de/fhir/StructureDefinition/chronic-lung-diseases" ]
      },
      "identifier": [ {
        "system": "https://mein.krankenhaus.de/fhir/NamingSystem/conditionId",
        "value": "be64b694164ae1f7b3b1c24828e260f25327fc589ee0b6effc9982cab3fac2a2"
      } ],
      "verificationStatus": {
        "coding": [ {
          "system": "http://terminology.hl7.org/CodeSystem/condition-ver-status",
          "code": "refuted",
          "display": "Refuted"
        }, {
          "system": "http://snomed.info/sct",
          "code": "410594000",
          "display": "Definitely NOT present (qualifier value)"
        } ]
      },
      "category": [ {
        "coding": [ {
          "system": "http://snomed.info/sct",
          "code": "418112009",
          "display": "Pulmonary medicine (qualifier value)"
        } ]
      } ],
      "code": {
        "coding": [ {
          "system": "http://fhir.de/CodeSystem/dimdi/icd-10-gm",
          "version": "2021",
          "code": "J44.9"
        }, {
          "system": "http://snomed.info/sct",
          "code": "13645005"
        } ]
      },
      "subject": {
        "reference": "Patient/88f1c3d8fe502d936d77a0e85e0a956c89e8d2df685d0320b8988b12607eab08"
      },
      "encounter": {
        "reference": "Encounter/876cf466be82975fad227ac0d34fc28127c5590e8927ab0e4cbc01a3a683cea9"
      },
      "_recordedDate": {
        "extension": [ {
          "url": "http://hl7.org/fhir/StructureDefinition/data-absent-reason",
          "valueCode": "unknown"
        } ]
      }
    },
    "request": {
      "method": "POST",
      "url": "Condition",
      "ifNoneExist": "identifier=https://mein.krankenhaus.de/fhir/NamingSystem/conditionId|45896e407ab2f3bbf52b0a9126ca4cfbb11d7bc6965e3b84061418a9b1cbcef7"
    }
  }, {
    "fullUrl": "Condition/b6b1cd15b9ff6b09bddcb6e703030dbab42159cb06b86bcaeccc182269befb30",
    "resource": {
      "resourceType": "Condition",
      "meta": {
        "profile": [ "https://www.netzwerk-universitaetsmedizin.de/fhir/StructureDefinition/chronic-lung-diseases" ]
      },
      "identifier": [ {
        "system": "https://mein.krankenhaus.de/fhir/NamingSystem/conditionId",
        "value": "db039b854e4cb5a740caa59629b40ada96000dcdde3b62cdaf3e655e7a014d32"
      } ],
      "clinicalStatus": {
        "coding": [ {
          "system": "http://terminology.hl7.org/CodeSystem/condition-clinical",
          "code": "active",
          "display": "Active"
        } ]
      },
      "verificationStatus": {
        "coding": [ {
          "system": "http://terminology.hl7.org/CodeSystem/condition-ver-status",
          "code": "confirmed",
          "display": "Confirmed"
        }, {
          "system": "http://snomed.info/sct",
          "code": "410605003",
          "display": "Confirmed present (qualifier value)"
        } ]
      },
      "category": [ {
        "coding": [ {
          "system": "http://snomed.info/sct",
          "code": "418112009",
          "display": "Pulmonary medicine (qualifier value)"
        } ]
      } ],
      "code": {
        "coding": [ {
          "system": "http://fhir.de/CodeSystem/dimdi/icd-10-gm",
          "version": "2021",
          "code": "J84.1"
        }, {
          "system": "http://snomed.info/sct",
          "code": "51615001"
        } ]
      },
      "subject": {
        "reference": "Patient/88f1c3d8fe502d936d77a0e85e0a956c89e8d2df685d0320b8988b12607eab08"
      },
      "encounter": {
        "reference": "Encounter/876cf466be82975fad227ac0d34fc28127c5590e8927ab0e4cbc01a3a683cea9"
      },
      "_recordedDate": {
        "extension": [ {
          "url": "http://hl7.org/fhir/StructureDefinition/data-absent-reason",
          "valueCode": "unknown"
        } ]
      }
    },
    "request": {
      "method": "POST",
      "url": "Condition",
      "ifNoneExist": "identifier=https://mein.krankenhaus.de/fhir/NamingSystem/conditionId|b6b1cd15b9ff6b09bddcb6e703030dbab42159cb06b86bcaeccc182269befb30"
    }
  }, {
    "fullUrl": "Condition/63ca9877e5427af81c64e1e927cf73a4fdfb566d83c085f50af6c22e8a668f18",
    "resource": {
      "resourceType": "Condition",
      "meta": {
        "profile": [ "https://www.netzwerk-universitaetsmedizin.de/fhir/StructureDefinition/chronic-lung-diseases" ]
      },
      "identifier": [ {
        "system": "https://mein.krankenhaus.de/fhir/NamingSystem/conditionId",
        "value": "1cfc65c3a6be682f7c33962b2dcd5757c7b92b46742a2dc8b63872bf61cf819f"
      } ],
      "verificationStatus": {
        "coding": [ {
          "system": "http://terminology.hl7.org/CodeSystem/condition-ver-status",
          "code": "refuted",
          "display": "Refuted"
        }, {
          "system": "http://snomed.info/sct",
          "code": "410594000",
          "display": "Definitely NOT present (qualifier value)"
        } ]
      },
      "category": [ {
        "coding": [ {
          "system": "http://snomed.info/sct",
          "code": "418112009",
          "display": "Pulmonary medicine (qualifier value)"
        } ]
      } ],
      "code": {
        "coding": [ {
          "system": "http://fhir.de/CodeSystem/dimdi/icd-10-gm",
          "version": "2021",
          "code": "I27.0"
        }, {
          "system": "http://snomed.info/sct",
          "code": "70995007"
        } ]
      },
      "subject": {
        "reference": "Patient/88f1c3d8fe502d936d77a0e85e0a956c89e8d2df685d0320b8988b12607eab08"
      },
      "encounter": {
        "reference": "Encounter/876cf466be82975fad227ac0d34fc28127c5590e8927ab0e4cbc01a3a683cea9"
      },
      "_recordedDate": {
        "extension": [ {
          "url": "http://hl7.org/fhir/StructureDefinition/data-absent-reason",
          "valueCode": "unknown"
        } ]
      }
    },
    "request": {
      "method": "POST",
      "url": "Condition",
      "ifNoneExist": "identifier=https://mein.krankenhaus.de/fhir/NamingSystem/conditionId|63ca9877e5427af81c64e1e927cf73a4fdfb566d83c085f50af6c22e8a668f18"
    }
  }, {
    "fullUrl": "Condition/b365ade949a83eb4ff1ad57f451bcda06d2efa7ae8ce321e6201302eed615808",
    "resource": {
      "resourceType": "Condition",
      "meta": {
        "profile": [ "https://www.netzwerk-universitaetsmedizin.de/fhir/StructureDefinition/chronic-lung-diseases" ]
      },
      "modifierExtension": [ {
        "url": "https://www.netzwerk-universitaetsmedizin.de/fhir/StructureDefinition/uncertainty-of-presence",
        "valueCodeableConcept": {
          "coding": [ {
            "system": "http://snomed.info/sct",
            "code": "261665006",
            "display": "Unknown (qualifier value)"
          } ],
          "text": "Presence unknown."
        }
      } ],
      "identifier": [ {
        "system": "https://mein.krankenhaus.de/fhir/NamingSystem/conditionId",
        "value": "50f8a1bcf7056bd3930844d0e851af392a226089c3f54fe6d768b2f568be8d47"
      } ],
      "category": [ {
        "coding": [ {
          "system": "http://snomed.info/sct",
          "code": "418112009",
          "display": "Pulmonary medicine (qualifier value)"
        } ]
      } ],
      "code": {
        "coding": [ {
          "system": "http://fhir.de/CodeSystem/dimdi/icd-10-gm",
          "version": "2021",
          "code": "E66.29"
        }, {
          "system": "http://snomed.info/sct",
          "code": "190966007"
        } ]
      },
      "subject": {
        "reference": "Patient/88f1c3d8fe502d936d77a0e85e0a956c89e8d2df685d0320b8988b12607eab08"
      },
      "encounter": {
        "reference": "Encounter/876cf466be82975fad227ac0d34fc28127c5590e8927ab0e4cbc01a3a683cea9"
      },
      "_recordedDate": {
        "extension": [ {
          "url": "http://hl7.org/fhir/StructureDefinition/data-absent-reason",
          "valueCode": "unknown"
        } ]
      }
    },
    "request": {
      "method": "POST",
      "url": "Condition",
      "ifNoneExist": "identifier=https://mein.krankenhaus.de/fhir/NamingSystem/conditionId|b365ade949a83eb4ff1ad57f451bcda06d2efa7ae8ce321e6201302eed615808"
    }
  }, {
    "fullUrl": "Condition/a56a2cd3fe7147c82f6f370790a179f3a3dd289af0a4bab2ebe4bcee5cfbf91b",
    "resource": {
      "resourceType": "Condition",
      "meta": {
        "profile": [ "https://www.netzwerk-universitaetsmedizin.de/fhir/StructureDefinition/chronic-lung-diseases" ]
      },
      "modifierExtension": [ {
        "url": "https://www.netzwerk-universitaetsmedizin.de/fhir/StructureDefinition/uncertainty-of-presence",
        "valueCodeableConcept": {
          "coding": [ {
            "system": "http://snomed.info/sct",
            "code": "261665006",
            "display": "Unknown (qualifier value)"
          } ],
          "text": "Presence unknown."
        }
      } ],
      "identifier": [ {
        "system": "https://mein.krankenhaus.de/fhir/NamingSystem/conditionId",
        "value": "20e544728865f6e6cef2202cef6ea1d87fd0bb80a26ff527aed2437fa1031ece"
      } ],
      "category": [ {
        "coding": [ {
          "system": "http://snomed.info/sct",
          "code": "418112009",
          "display": "Pulmonary medicine (qualifier value)"
        } ]
      } ],
      "code": {
        "coding": [ {
          "system": "http://fhir.de/CodeSystem/dimdi/icd-10-gm",
          "version": "2021",
          "code": "G47.3"
        }, {
          "system": "http://snomed.info/sct",
          "code": "73430006"
        } ]
      },
      "subject": {
        "reference": "Patient/88f1c3d8fe502d936d77a0e85e0a956c89e8d2df685d0320b8988b12607eab08"
      },
      "encounter": {
        "reference": "Encounter/876cf466be82975fad227ac0d34fc28127c5590e8927ab0e4cbc01a3a683cea9"
      },
      "_recordedDate": {
        "extension": [ {
          "url": "http://hl7.org/fhir/StructureDefinition/data-absent-reason",
          "valueCode": "unknown"
        } ]
      }
    },
    "request": {
      "method": "POST",
      "url": "Condition",
      "ifNoneExist": "identifier=https://mein.krankenhaus.de/fhir/NamingSystem/conditionId|a56a2cd3fe7147c82f6f370790a179f3a3dd289af0a4bab2ebe4bcee5cfbf91b"
    }
  }, {
    "fullUrl": "Condition/d41c13085cc4063796996afe4815eeb8d266bbedc1980bf58964f0fdcb295eee",
    "resource": {
      "resourceType": "Condition",
      "meta": {
        "profile": [ "https://www.netzwerk-universitaetsmedizin.de/fhir/StructureDefinition/chronic-lung-diseases" ]
      },
      "identifier": [ {
        "system": "https://mein.krankenhaus.de/fhir/NamingSystem/conditionId",
        "value": "fddd0c49f6bd8adb60bba7e37e8e907f57b513f75d458ca545690b59fb42572d"
      } ],
      "verificationStatus": {
        "coding": [ {
          "system": "http://terminology.hl7.org/CodeSystem/condition-ver-status",
          "code": "refuted",
          "display": "Refuted"
        }, {
          "system": "http://snomed.info/sct",
          "code": "410594000",
          "display": "Definitely NOT present (qualifier value)"
        } ]
      },
      "category": [ {
        "coding": [ {
          "system": "http://snomed.info/sct",
          "code": "418112009",
          "display": "Pulmonary medicine (qualifier value)"
        } ]
      } ],
      "code": {
        "coding": [ {
          "system": "http://fhir.de/CodeSystem/dimdi/icd-10-gm",
          "version": "2021",
          "code": "G47.31"
        }, {
          "system": "http://snomed.info/sct",
          "code": "78275009"
        } ]
      },
      "subject": {
        "reference": "Patient/88f1c3d8fe502d936d77a0e85e0a956c89e8d2df685d0320b8988b12607eab08"
      },
      "encounter": {
        "reference": "Encounter/876cf466be82975fad227ac0d34fc28127c5590e8927ab0e4cbc01a3a683cea9"
      },
      "_recordedDate": {
        "extension": [ {
          "url": "http://hl7.org/fhir/StructureDefinition/data-absent-reason",
          "valueCode": "unknown"
        } ]
      }
    },
    "request": {
      "method": "POST",
      "url": "Condition",
      "ifNoneExist": "identifier=https://mein.krankenhaus.de/fhir/NamingSystem/conditionId|d41c13085cc4063796996afe4815eeb8d266bbedc1980bf58964f0fdcb295eee"
    }
  }, {
    "fullUrl": "Condition/a7ec31f9894f42c7455f48ae7a1801c3bd557abb26485e07b55c1893f214885c",
    "resource": {
      "resourceType": "Condition",
      "meta": {
        "profile": [ "https://www.netzwerk-universitaetsmedizin.de/fhir/StructureDefinition/chronic-lung-diseases" ]
      },
      "modifierExtension": [ {
        "url": "https://www.netzwerk-universitaetsmedizin.de/fhir/StructureDefinition/uncertainty-of-presence",
        "valueCodeableConcept": {
          "coding": [ {
            "system": "http://snomed.info/sct",
            "code": "261665006",
            "display": "Unknown (qualifier value)"
          } ],
          "text": "Presence unknown."
        }
      } ],
      "identifier": [ {
        "system": "https://mein.krankenhaus.de/fhir/NamingSystem/conditionId",
        "value": "52c38ce35c51715219396f4ec4b10195e35aeb1c32de565a5c8fd8f36385295b"
      } ],
      "category": [ {
        "coding": [ {
          "system": "http://snomed.info/sct",
          "code": "418112009",
          "display": "Pulmonary medicine (qualifier value)"
        } ]
      } ],
      "code": {
        "coding": [ {
          "system": "http://fhir.de/CodeSystem/dimdi/icd-10-gm",
          "version": "2021",
          "code": "E84.9"
        }, {
          "system": "http://snomed.info/sct",
          "code": "190905008"
        } ]
      },
      "subject": {
        "reference": "Patient/88f1c3d8fe502d936d77a0e85e0a956c89e8d2df685d0320b8988b12607eab08"
      },
      "encounter": {
        "reference": "Encounter/876cf466be82975fad227ac0d34fc28127c5590e8927ab0e4cbc01a3a683cea9"
      },
      "_recordedDate": {
        "extension": [ {
          "url": "http://hl7.org/fhir/StructureDefinition/data-absent-reason",
          "valueCode": "unknown"
        } ]
      }
    },
    "request": {
      "method": "POST",
      "url": "Condition",
      "ifNoneExist": "identifier=https://mein.krankenhaus.de/fhir/NamingSystem/conditionId|a7ec31f9894f42c7455f48ae7a1801c3bd557abb26485e07b55c1893f214885c"
    }
  }, {
    "fullUrl": "Condition/78f47f736235826a55042d0ef6a623a3ec3f5b857032664ce96a6ca3f493b3fd",
    "resource": {
      "resourceType": "Condition",
      "meta": {
        "profile": [ "https://www.netzwerk-universitaetsmedizin.de/fhir/StructureDefinition/chronic-lung-diseases" ]
      },
      "identifier": [ {
        "system": "https://mein.krankenhaus.de/fhir/NamingSystem/conditionId",
        "value": "d8e6e634f9e8194b3a0b7cf095786bb81a474110fd3f34f03fbf76555e861b68"
      } ],
      "verificationStatus": {
        "coding": [ {
          "system": "http://terminology.hl7.org/CodeSystem/condition-ver-status",
          "code": "refuted",
          "display": "Refuted"
        }, {
          "system": "http://snomed.info/sct",
          "code": "410594000",
          "display": "Definitely NOT present (qualifier value)"
        } ]
      },
      "category": [ {
        "coding": [ {
          "system": "http://snomed.info/sct",
          "code": "418112009",
          "display": "Pulmonary medicine (qualifier value)"
        } ]
      } ],
      "code": {
        "coding": [ {
          "system": "http://snomed.info/sct",
          "code": "106048009"
        } ]
      },
      "subject": {
        "reference": "Patient/88f1c3d8fe502d936d77a0e85e0a956c89e8d2df685d0320b8988b12607eab08"
      },
      "encounter": {
        "reference": "Encounter/876cf466be82975fad227ac0d34fc28127c5590e8927ab0e4cbc01a3a683cea9"
      },
      "_recordedDate": {
        "extension": [ {
          "url": "http://hl7.org/fhir/StructureDefinition/data-absent-reason",
          "valueCode": "unknown"
        } ]
      }
    },
    "request": {
      "method": "POST",
      "url": "Condition",
      "ifNoneExist": "identifier=https://mein.krankenhaus.de/fhir/NamingSystem/conditionId|78f47f736235826a55042d0ef6a623a3ec3f5b857032664ce96a6ca3f493b3fd"
    }
  }, {
    "fullUrl": "Condition/a14dd5d1cf5ddeba666a8c6e09edd31a4791400fa17f30909fe6281c3c00101c",
    "resource": {
      "resourceType": "Condition",
      "meta": {
        "profile": [ "https://www.netzwerk-universitaetsmedizin.de/fhir/StructureDefinition/cardiovascular-diseases" ]
      },
      "modifierExtension": [ {
        "url": "https://www.netzwerk-universitaetsmedizin.de/fhir/StructureDefinition/uncertainty-of-presence",
        "valueCodeableConcept": {
          "coding": [ {
            "system": "http://snomed.info/sct",
            "code": "261665006",
            "display": "Unknown (qualifier value)"
          } ],
          "text": "Presence unknown."
        }
      } ],
      "identifier": [ {
        "system": "https://mein.krankenhaus.de/fhir/NamingSystem/conditionId",
        "value": "9fa2e19e7352d080700f0132fab9ea50522c8c8a4829b270847504c2193c80e6"
      } ],
      "category": [ {
        "coding": [ {
          "system": "http://snomed.info/sct",
          "code": "722414000",
          "display": "Vascular medicine (qualifier value)"
        } ]
      } ],
      "code": {
        "coding": [ {
          "system": "http://fhir.de/CodeSystem/dimdi/icd-10-gm",
          "version": "2021",
          "code": "I10.90"
        }, {
          "system": "http://snomed.info/sct",
          "code": "38341003"
        } ]
      },
      "subject": {
        "reference": "Patient/88f1c3d8fe502d936d77a0e85e0a956c89e8d2df685d0320b8988b12607eab08"
      },
      "encounter": {
        "reference": "Encounter/876cf466be82975fad227ac0d34fc28127c5590e8927ab0e4cbc01a3a683cea9"
      },
      "_recordedDate": {
        "extension": [ {
          "url": "http://hl7.org/fhir/StructureDefinition/data-absent-reason",
          "valueCode": "unknown"
        } ]
      }
    },
    "request": {
      "method": "POST",
      "url": "Condition",
      "ifNoneExist": "identifier=https://mein.krankenhaus.de/fhir/NamingSystem/conditionId|a14dd5d1cf5ddeba666a8c6e09edd31a4791400fa17f30909fe6281c3c00101c"
    }
  }, {
    "fullUrl": "Condition/45d785ab5129bbf50c58a3b695c50ddd337c59374af9b7ea367cd3c683a3d628",
    "resource": {
      "resourceType": "Condition",
      "meta": {
        "profile": [ "https://www.netzwerk-universitaetsmedizin.de/fhir/StructureDefinition/cardiovascular-diseases" ]
      },
      "identifier": [ {
        "system": "https://mein.krankenhaus.de/fhir/NamingSystem/conditionId",
        "value": "1d3aa2de00e5ea40fdeee43c02412a53e4d4edc7faa5141db5a861783a394cb0"
      } ],
      "verificationStatus": {
        "coding": [ {
          "system": "http://terminology.hl7.org/CodeSystem/condition-ver-status",
          "code": "refuted",
          "display": "Refuted"
        }, {
          "system": "http://snomed.info/sct",
          "code": "410594000",
          "display": "Definitely NOT present (qualifier value)"
        } ]
      },
      "category": [ {
        "coding": [ {
          "system": "http://snomed.info/sct",
          "code": "722414000",
          "display": "Vascular medicine (qualifier value)"
        } ]
      } ],
      "code": {
        "coding": [ {
          "system": "http://fhir.de/CodeSystem/dimdi/icd-10-gm",
          "version": "2021",
          "code": "I25.29"
        }, {
          "system": "http://snomed.info/sct",
          "code": "417662000:246090004=22298006"
        } ]
      },
      "subject": {
        "reference": "Patient/88f1c3d8fe502d936d77a0e85e0a956c89e8d2df685d0320b8988b12607eab08"
      },
      "encounter": {
        "reference": "Encounter/876cf466be82975fad227ac0d34fc28127c5590e8927ab0e4cbc01a3a683cea9"
      },
      "_recordedDate": {
        "extension": [ {
          "url": "http://hl7.org/fhir/StructureDefinition/data-absent-reason",
          "valueCode": "unknown"
        } ]
      }
    },
    "request": {
      "method": "POST",
      "url": "Condition",
      "ifNoneExist": "identifier=https://mein.krankenhaus.de/fhir/NamingSystem/conditionId|45d785ab5129bbf50c58a3b695c50ddd337c59374af9b7ea367cd3c683a3d628"
    }
  }, {
    "fullUrl": "Condition/1aba58f310b304281b92ceb634c9a2da1f5a68bf9621dc1b3df7229411dfce6b",
    "resource": {
      "resourceType": "Condition",
      "meta": {
        "profile": [ "https://www.netzwerk-universitaetsmedizin.de/fhir/StructureDefinition/cardiovascular-diseases" ]
      },
      "modifierExtension": [ {
        "url": "https://www.netzwerk-universitaetsmedizin.de/fhir/StructureDefinition/uncertainty-of-presence",
        "valueCodeableConcept": {
          "coding": [ {
            "system": "http://snomed.info/sct",
            "code": "261665006",
            "display": "Unknown (qualifier value)"
          } ],
          "text": "Presence unknown."
        }
      } ],
      "identifier": [ {
        "system": "https://mein.krankenhaus.de/fhir/NamingSystem/conditionId",
        "value": "f307df91606603750be9cf5f2e4d7ea5795b590b2073916b751c5953cfda580f"
      } ],
      "category": [ {
        "coding": [ {
          "system": "http://snomed.info/sct",
          "code": "722414000",
          "display": "Vascular medicine (qualifier value)"
        } ]
      } ],
      "code": {
        "coding": [ {
          "system": "http://fhir.de/CodeSystem/dimdi/icd-10-gm",
          "version": "2021",
          "code": "I49.9"
        }, {
          "system": "http://snomed.info/sct",
          "code": "698247007"
        } ]
      },
      "subject": {
        "reference": "Patient/88f1c3d8fe502d936d77a0e85e0a956c89e8d2df685d0320b8988b12607eab08"
      },
      "encounter": {
        "reference": "Encounter/876cf466be82975fad227ac0d34fc28127c5590e8927ab0e4cbc01a3a683cea9"
      },
      "_recordedDate": {
        "extension": [ {
          "url": "http://hl7.org/fhir/StructureDefinition/data-absent-reason",
          "valueCode": "unknown"
        } ]
      }
    },
    "request": {
      "method": "POST",
      "url": "Condition",
      "ifNoneExist": "identifier=https://mein.krankenhaus.de/fhir/NamingSystem/conditionId|1aba58f310b304281b92ceb634c9a2da1f5a68bf9621dc1b3df7229411dfce6b"
    }
  }, {
    "fullUrl": "Condition/bd455e19a3849c47374b0e1f50be1baccf55aa20a50225df773fc8c423b1fad2",
    "resource": {
      "resourceType": "Condition",
      "meta": {
        "profile": [ "https://www.netzwerk-universitaetsmedizin.de/fhir/StructureDefinition/cardiovascular-diseases" ]
      },
      "identifier": [ {
        "system": "https://mein.krankenhaus.de/fhir/NamingSystem/conditionId",
        "value": "2bcbc2e3339efec6144033522f85dd6ba414307cc5fbbeb6e5dfaa7a90ac6840"
      } ],
      "verificationStatus": {
        "coding": [ {
          "system": "http://terminology.hl7.org/CodeSystem/condition-ver-status",
          "code": "refuted",
          "display": "Refuted"
        }, {
          "system": "http://snomed.info/sct",
          "code": "410594000",
          "display": "Definitely NOT present (qualifier value)"
        } ]
      },
      "category": [ {
        "coding": [ {
          "system": "http://snomed.info/sct",
          "code": "722414000",
          "display": "Vascular medicine (qualifier value)"
        } ]
      } ],
      "code": {
        "coding": [ {
          "system": "http://fhir.de/CodeSystem/dimdi/icd-10-gm",
          "version": "2021",
          "code": "I50.9"
        }, {
          "system": "http://snomed.info/sct",
          "code": "84114007"
        } ]
      },
      "subject": {
        "reference": "Patient/88f1c3d8fe502d936d77a0e85e0a956c89e8d2df685d0320b8988b12607eab08"
      },
      "encounter": {
        "reference": "Encounter/876cf466be82975fad227ac0d34fc28127c5590e8927ab0e4cbc01a3a683cea9"
      },
      "_recordedDate": {
        "extension": [ {
          "url": "http://hl7.org/fhir/StructureDefinition/data-absent-reason",
          "valueCode": "unknown"
        } ]
      }
    },
    "request": {
      "method": "POST",
      "url": "Condition",
      "ifNoneExist": "identifier=https://mein.krankenhaus.de/fhir/NamingSystem/conditionId|bd455e19a3849c47374b0e1f50be1baccf55aa20a50225df773fc8c423b1fad2"
    }
  }, {
    "fullUrl": "Condition/a05041d851e338a06bdab3b2eb89d17de155200caf0c0eec47148150c9527ae9",
    "resource": {
      "resourceType": "Condition",
      "meta": {
        "profile": [ "https://www.netzwerk-universitaetsmedizin.de/fhir/StructureDefinition/cardiovascular-diseases" ]
      },
      "identifier": [ {
        "system": "https://mein.krankenhaus.de/fhir/NamingSystem/conditionId",
        "value": "81ea204d8a9f7b28b169449018fbbd90f7317a256ee56af8d93e64d44263e87b"
      } ],
      "verificationStatus": {
        "coding": [ {
          "system": "http://terminology.hl7.org/CodeSystem/condition-ver-status",
          "code": "refuted",
          "display": "Refuted"
        }, {
          "system": "http://snomed.info/sct",
          "code": "410594000",
          "display": "Definitely NOT present (qualifier value)"
        } ]
      },
      "category": [ {
        "coding": [ {
          "system": "http://snomed.info/sct",
          "code": "722414000",
          "display": "Vascular medicine (qualifier value)"
        } ]
      } ],
      "code": {
        "coding": [ {
          "system": "http://fhir.de/CodeSystem/dimdi/icd-10-gm",
          "version": "2021",
          "code": "I73.9"
        }, {
          "system": "http://snomed.info/sct",
          "code": "399957001"
        } ]
      },
      "subject": {
        "reference": "Patient/88f1c3d8fe502d936d77a0e85e0a956c89e8d2df685d0320b8988b12607eab08"
      },
      "encounter": {
        "reference": "Encounter/876cf466be82975fad227ac0d34fc28127c5590e8927ab0e4cbc01a3a683cea9"
      },
      "_recordedDate": {
        "extension": [ {
          "url": "http://hl7.org/fhir/StructureDefinition/data-absent-reason",
          "valueCode": "unknown"
        } ]
      }
    },
    "request": {
      "method": "POST",
      "url": "Condition",
      "ifNoneExist": "identifier=https://mein.krankenhaus.de/fhir/NamingSystem/conditionId|a05041d851e338a06bdab3b2eb89d17de155200caf0c0eec47148150c9527ae9"
    }
  }, {
    "fullUrl": "Condition/93c00dcda76f93e167307d39b4d54a3c6cdcab5018a68cc3048635ffdbf45f6f",
    "resource": {
      "resourceType": "Condition",
      "meta": {
        "profile": [ "https://www.netzwerk-universitaetsmedizin.de/fhir/StructureDefinition/cardiovascular-diseases" ]
      },
      "identifier": [ {
        "system": "https://mein.krankenhaus.de/fhir/NamingSystem/conditionId",
        "value": "d8a863e6a6675eef87ac7a6a31264f0c1f8f593d1a143f9f3a241bbad315dc29"
      } ],
      "clinicalStatus": {
        "coding": [ {
          "system": "http://terminology.hl7.org/CodeSystem/condition-clinical",
          "code": "active",
          "display": "Active"
        } ]
      },
      "verificationStatus": {
        "coding": [ {
          "system": "http://terminology.hl7.org/CodeSystem/condition-ver-status",
          "code": "confirmed",
          "display": "Confirmed"
        }, {
          "system": "http://snomed.info/sct",
          "code": "410605003",
          "display": "Confirmed present (qualifier value)"
        } ]
      },
      "category": [ {
        "coding": [ {
          "system": "http://snomed.info/sct",
          "code": "722414000",
          "display": "Vascular medicine (qualifier value)"
        } ]
      } ],
      "code": {
        "coding": [ {
          "system": "http://fhir.de/CodeSystem/dimdi/icd-10-gm",
          "version": "2021",
          "code": "Z95.5"
        }, {
          "system": "http://snomed.info/sct",
          "code": "416940007:363589002=81266008"
        } ]
      },
      "subject": {
        "reference": "Patient/88f1c3d8fe502d936d77a0e85e0a956c89e8d2df685d0320b8988b12607eab08"
      },
      "encounter": {
        "reference": "Encounter/876cf466be82975fad227ac0d34fc28127c5590e8927ab0e4cbc01a3a683cea9"
      },
      "_recordedDate": {
        "extension": [ {
          "url": "http://hl7.org/fhir/StructureDefinition/data-absent-reason",
          "valueCode": "unknown"
        } ]
      }
    },
    "request": {
      "method": "POST",
      "url": "Condition",
      "ifNoneExist": "identifier=https://mein.krankenhaus.de/fhir/NamingSystem/conditionId|93c00dcda76f93e167307d39b4d54a3c6cdcab5018a68cc3048635ffdbf45f6f"
    }
  }, {
    "fullUrl": "Condition/5b60ffd30c4aa0d18832b933a9c8352441fff27c27409a33e63ed3af890b26ee",
    "resource": {
      "resourceType": "Condition",
      "meta": {
        "profile": [ "https://www.netzwerk-universitaetsmedizin.de/fhir/StructureDefinition/cardiovascular-diseases" ]
      },
      "modifierExtension": [ {
        "url": "https://www.netzwerk-universitaetsmedizin.de/fhir/StructureDefinition/uncertainty-of-presence",
        "valueCodeableConcept": {
          "coding": [ {
            "system": "http://snomed.info/sct",
            "code": "261665006",
            "display": "Unknown (qualifier value)"
          } ],
          "text": "Presence unknown."
        }
      } ],
      "identifier": [ {
        "system": "https://mein.krankenhaus.de/fhir/NamingSystem/conditionId",
        "value": "044cab8aa56e8bccaf89b3a524e9bb40ab196f23a2949aa7e6099f713d3d30db"
      } ],
      "category": [ {
        "coding": [ {
          "system": "http://snomed.info/sct",
          "code": "722414000",
          "display": "Vascular medicine (qualifier value)"
        } ]
      } ],
      "code": {
        "coding": [ {
          "system": "http://fhir.de/CodeSystem/dimdi/icd-10-gm",
          "version": "2021",
          "code": "I25.1"
        }, {
          "system": "http://snomed.info/sct",
          "code": "53741008"
        } ]
      },
      "subject": {
        "reference": "Patient/88f1c3d8fe502d936d77a0e85e0a956c89e8d2df685d0320b8988b12607eab08"
      },
      "encounter": {
        "reference": "Encounter/876cf466be82975fad227ac0d34fc28127c5590e8927ab0e4cbc01a3a683cea9"
      },
      "_recordedDate": {
        "extension": [ {
          "url": "http://hl7.org/fhir/StructureDefinition/data-absent-reason",
          "valueCode": "unknown"
        } ]
      }
    },
    "request": {
      "method": "POST",
      "url": "Condition",
      "ifNoneExist": "identifier=https://mein.krankenhaus.de/fhir/NamingSystem/conditionId|5b60ffd30c4aa0d18832b933a9c8352441fff27c27409a33e63ed3af890b26ee"
    }
  }, {
    "fullUrl": "Condition/3baea87b76b3d68d7da5883ed0aa913a6762671369b1bf837b3b52e39b1c3784",
    "resource": {
      "resourceType": "Condition",
      "meta": {
        "profile": [ "https://www.netzwerk-universitaetsmedizin.de/fhir/StructureDefinition/cardiovascular-diseases" ]
      },
      "identifier": [ {
        "system": "https://mein.krankenhaus.de/fhir/NamingSystem/conditionId",
        "value": "1f616558967f542c4bc2d929ca678983b4928d0468f5941b099339bbd692e0f0"
      } ],
      "verificationStatus": {
        "coding": [ {
          "system": "http://terminology.hl7.org/CodeSystem/condition-ver-status",
          "code": "refuted",
          "display": "Refuted"
        }, {
          "system": "http://snomed.info/sct",
          "code": "410594000",
          "display": "Definitely NOT present (qualifier value)"
        } ]
      },
      "category": [ {
        "coding": [ {
          "system": "http://snomed.info/sct",
          "code": "722414000",
          "display": "Vascular medicine (qualifier value)"
        } ]
      } ],
      "code": {
        "coding": [ {
          "system": "http://fhir.de/CodeSystem/dimdi/icd-10-gm",
          "version": "2021",
          "code": "I65.2"
        }, {
          "system": "http://snomed.info/sct",
          "code": "64586002"
        } ]
      },
      "subject": {
        "reference": "Patient/88f1c3d8fe502d936d77a0e85e0a956c89e8d2df685d0320b8988b12607eab08"
      },
      "encounter": {
        "reference": "Encounter/876cf466be82975fad227ac0d34fc28127c5590e8927ab0e4cbc01a3a683cea9"
      },
      "_recordedDate": {
        "extension": [ {
          "url": "http://hl7.org/fhir/StructureDefinition/data-absent-reason",
          "valueCode": "unknown"
        } ]
      }
    },
    "request": {
      "method": "POST",
      "url": "Condition",
      "ifNoneExist": "identifier=https://mein.krankenhaus.de/fhir/NamingSystem/conditionId|3baea87b76b3d68d7da5883ed0aa913a6762671369b1bf837b3b52e39b1c3784"
    }
  }, {
    "fullUrl": "Condition/d3bdc45beec3c69051bc199eba8c8b39b7e08441bcc443c0cb3efe9a7e3949ea",
    "resource": {
      "resourceType": "Condition",
      "meta": {
        "profile": [ "https://www.netzwerk-universitaetsmedizin.de/fhir/StructureDefinition/cardiovascular-diseases" ]
      },
      "identifier": [ {
        "system": "https://mein.krankenhaus.de/fhir/NamingSystem/conditionId",
        "value": "e07f94714ceb6bb01b7bbc05ac1ca603b43092a95345b223fdc6832db480600d"
      } ],
      "clinicalStatus": {
        "coding": [ {
          "system": "http://terminology.hl7.org/CodeSystem/condition-clinical",
          "code": "active",
          "display": "Active"
        } ]
      },
      "verificationStatus": {
        "coding": [ {
          "system": "http://terminology.hl7.org/CodeSystem/condition-ver-status",
          "code": "confirmed",
          "display": "Confirmed"
        }, {
          "system": "http://snomed.info/sct",
          "code": "410605003",
          "display": "Confirmed present (qualifier value)"
        } ]
      },
      "category": [ {
        "coding": [ {
          "system": "http://snomed.info/sct",
          "code": "722414000",
          "display": "Vascular medicine (qualifier value)"
        } ]
      } ],
      "code": {
        "coding": [ {
          "system": "http://fhir.de/CodeSystem/dimdi/icd-10-gm",
          "version": "2021",
          "code": "I51.6"
        }, {
          "system": "http://snomed.info/sct",
          "code": "49601007"
        } ]
      },
      "subject": {
        "reference": "Patient/88f1c3d8fe502d936d77a0e85e0a956c89e8d2df685d0320b8988b12607eab08"
      },
      "encounter": {
        "reference": "Encounter/876cf466be82975fad227ac0d34fc28127c5590e8927ab0e4cbc01a3a683cea9"
      },
      "_recordedDate": {
        "extension": [ {
          "url": "http://hl7.org/fhir/StructureDefinition/data-absent-reason",
          "valueCode": "unknown"
        } ]
      }
    },
    "request": {
      "method": "POST",
      "url": "Condition",
      "ifNoneExist": "identifier=https://mein.krankenhaus.de/fhir/NamingSystem/conditionId|d3bdc45beec3c69051bc199eba8c8b39b7e08441bcc443c0cb3efe9a7e3949ea"
    }
  }, {
    "fullUrl": "Condition/93a7999756441137613098900ae9c2f85b59d48fcab93964c9ec41943292ff18",
    "resource": {
      "resourceType": "Condition",
      "meta": {
        "profile": [ "https://www.netzwerk-universitaetsmedizin.de/fhir/StructureDefinition/human-immunodeficiency-virus-infection" ]
      },
      "identifier": [ {
        "system": "https://mein.krankenhaus.de/fhir/NamingSystem/conditionId",
        "value": "7dc3f938ca40604880b3d184b798c91137f18f9ce111f11c4415135366ce69b9"
      } ],
      "verificationStatus": {
        "coding": [ {
          "system": "http://terminology.hl7.org/CodeSystem/condition-ver-status",
          "code": "refuted",
          "display": "Refuted"
        }, {
          "system": "http://snomed.info/sct",
          "code": "410594000",
          "display": "Definitely NOT present (qualifier value)"
        } ]
      },
      "category": [ {
        "coding": [ {
          "system": "http://snomed.info/sct",
          "code": "394807007",
          "display": "Infectious diseases (specialty) (qualifier value)"
        } ]
      } ],
      "code": {
        "coding": [ {
          "system": "http://fhir.de/CodeSystem/dimdi/icd-10-gm",
          "version": "2021",
          "code": "B24"
        }, {
          "system": "http://snomed.info/sct",
          "code": "86406008"
        } ]
      },
      "subject": {
        "reference": "Patient/88f1c3d8fe502d936d77a0e85e0a956c89e8d2df685d0320b8988b12607eab08"
      },
      "encounter": {
        "reference": "Encounter/876cf466be82975fad227ac0d34fc28127c5590e8927ab0e4cbc01a3a683cea9"
      },
      "_recordedDate": {
        "extension": [ {
          "url": "http://hl7.org/fhir/StructureDefinition/data-absent-reason",
          "valueCode": "unknown"
        } ]
      }
    },
    "request": {
      "method": "POST",
      "url": "Condition",
      "ifNoneExist": "identifier=https://mein.krankenhaus.de/fhir/NamingSystem/conditionId|93a7999756441137613098900ae9c2f85b59d48fcab93964c9ec41943292ff18"
    }
  }, {
    "fullUrl": "Condition/0c46a9dc9cfd6adb34d43fda911c1717be11a18b872f61751664f9d738542494",
    "resource": {
      "resourceType": "Condition",
      "meta": {
        "profile": [ "https://www.netzwerk-universitaetsmedizin.de/fhir/StructureDefinition/organ-recipient" ]
      },
      "identifier": [ {
        "system": "https://mein.krankenhaus.de/fhir/NamingSystem/conditionId",
        "value": "7b7754fe99c0fff9467e039998f9920073aa58474cbca407ddcef5458bd02855"
      } ],
      "clinicalStatus": {
        "coding": [ {
          "system": "http://terminology.hl7.org/CodeSystem/condition-clinical",
          "code": "active",
          "display": "Active"
        } ]
      },
      "verificationStatus": {
        "coding": [ {
          "system": "http://terminology.hl7.org/CodeSystem/condition-ver-status",
          "code": "confirmed",
          "display": "Confirmed"
        }, {
          "system": "http://snomed.info/sct",
          "code": "410605003",
          "display": "Confirmed present (qualifier value)"
        } ]
      },
      "category": [ {
        "coding": [ {
          "system": "http://snomed.info/sct",
          "code": "788415003",
          "display": "Transplant medicine (qualifier value)"
        } ]
      } ],
      "code": {
        "coding": [ {
          "system": "http://fhir.de/CodeSystem/dimdi/icd-10-gm",
          "version": "2021",
          "code": "Z94.1"
        } ]
      },
      "bodySite": [ {
        "coding": [ {
          "system": "http://snomed.info/sct",
          "code": "302509004"
        } ]
      } ],
      "subject": {
        "reference": "Patient/88f1c3d8fe502d936d77a0e85e0a956c89e8d2df685d0320b8988b12607eab08"
      },
      "encounter": {
        "reference": "Encounter/876cf466be82975fad227ac0d34fc28127c5590e8927ab0e4cbc01a3a683cea9"
      },
      "_recordedDate": {
        "extension": [ {
          "url": "http://hl7.org/fhir/StructureDefinition/data-absent-reason",
          "valueCode": "unknown"
        } ]
      }
    },
    "request": {
      "method": "POST",
      "url": "Condition",
      "ifNoneExist": "identifier=https://mein.krankenhaus.de/fhir/NamingSystem/conditionId|0c46a9dc9cfd6adb34d43fda911c1717be11a18b872f61751664f9d738542494"
    }
  }, {
    "fullUrl": "Condition/2008430519d4c2035ae7888a119d2a2b4a8cf5e997c05e8385c9e377855fc15a",
    "resource": {
      "resourceType": "Condition",
      "meta": {
        "profile": [ "https://www.netzwerk-universitaetsmedizin.de/fhir/StructureDefinition/organ-recipient" ]
      },
      "identifier": [ {
        "system": "https://mein.krankenhaus.de/fhir/NamingSystem/conditionId",
        "value": "940ccd2817edd416ccb330c5f79fe432af7709f47f40f3d88e9bf96972145d01"
      } ],
      "verificationStatus": {
        "coding": [ {
          "system": "http://terminology.hl7.org/CodeSystem/condition-ver-status",
          "code": "refuted",
          "display": "Refuted"
        }, {
          "system": "http://snomed.info/sct",
          "code": "410594000",
          "display": "Definitely NOT present (qualifier value)"
        } ]
      },
      "category": [ {
        "coding": [ {
          "system": "http://snomed.info/sct",
          "code": "788415003",
          "display": "Transplant medicine (qualifier value)"
        } ]
      } ],
      "code": {
        "coding": [ {
          "system": "http://fhir.de/CodeSystem/dimdi/icd-10-gm",
          "version": "2021",
          "code": "Z94.2"
        } ]
      },
      "bodySite": [ {
        "coding": [ {
          "system": "http://snomed.info/sct",
          "code": "181216001"
        } ]
      } ],
      "subject": {
        "reference": "Patient/88f1c3d8fe502d936d77a0e85e0a956c89e8d2df685d0320b8988b12607eab08"
      },
      "encounter": {
        "reference": "Encounter/876cf466be82975fad227ac0d34fc28127c5590e8927ab0e4cbc01a3a683cea9"
      },
      "_recordedDate": {
        "extension": [ {
          "url": "http://hl7.org/fhir/StructureDefinition/data-absent-reason",
          "valueCode": "unknown"
        } ]
      }
    },
    "request": {
      "method": "POST",
      "url": "Condition",
      "ifNoneExist": "identifier=https://mein.krankenhaus.de/fhir/NamingSystem/conditionId|2008430519d4c2035ae7888a119d2a2b4a8cf5e997c05e8385c9e377855fc15a"
    }
  }, {
    "fullUrl": "Condition/b80817aac6304e4e874af612a360ef5ae35b03b7190d83f257d5c42c168d11f6",
    "resource": {
      "resourceType": "Condition",
      "meta": {
        "profile": [ "https://www.netzwerk-universitaetsmedizin.de/fhir/StructureDefinition/organ-recipient" ]
      },
      "identifier": [ {
        "system": "https://mein.krankenhaus.de/fhir/NamingSystem/conditionId",
        "value": "ecec7bef27a71e8a85a3b270163ec1ec6f6fc908c14f37d86b388e929cd4ca5f"
      } ],
      "verificationStatus": {
        "coding": [ {
          "system": "http://terminology.hl7.org/CodeSystem/condition-ver-status",
          "code": "refuted",
          "display": "Refuted"
        }, {
          "system": "http://snomed.info/sct",
          "code": "410594000",
          "display": "Definitely NOT present (qualifier value)"
        } ]
      },
      "category": [ {
        "coding": [ {
          "system": "http://snomed.info/sct",
          "code": "788415003",
          "display": "Transplant medicine (qualifier value)"
        } ]
      } ],
      "code": {
        "coding": [ {
          "system": "http://fhir.de/CodeSystem/dimdi/icd-10-gm",
          "version": "2021",
          "code": "Z94.4"
        } ]
      },
      "bodySite": [ {
        "coding": [ {
          "system": "http://snomed.info/sct",
          "code": "181268008"
        } ]
      } ],
      "subject": {
        "reference": "Patient/88f1c3d8fe502d936d77a0e85e0a956c89e8d2df685d0320b8988b12607eab08"
      },
      "encounter": {
        "reference": "Encounter/876cf466be82975fad227ac0d34fc28127c5590e8927ab0e4cbc01a3a683cea9"
      },
      "_recordedDate": {
        "extension": [ {
          "url": "http://hl7.org/fhir/StructureDefinition/data-absent-reason",
          "valueCode": "unknown"
        } ]
      }
    },
    "request": {
      "method": "POST",
      "url": "Condition",
      "ifNoneExist": "identifier=https://mein.krankenhaus.de/fhir/NamingSystem/conditionId|b80817aac6304e4e874af612a360ef5ae35b03b7190d83f257d5c42c168d11f6"
    }
  }, {
    "fullUrl": "Condition/6691fa5240ed729fccf81ccf78f25028e3d5d1ef851022e345e289168c83875c",
    "resource": {
      "resourceType": "Condition",
      "meta": {
        "profile": [ "https://www.netzwerk-universitaetsmedizin.de/fhir/StructureDefinition/organ-recipient" ]
      },
      "modifierExtension": [ {
        "url": "https://www.netzwerk-universitaetsmedizin.de/fhir/StructureDefinition/uncertainty-of-presence",
        "valueCodeableConcept": {
          "coding": [ {
            "system": "http://snomed.info/sct",
            "code": "261665006",
            "display": "Unknown (qualifier value)"
          } ],
          "text": "Presence unknown."
        }
      } ],
      "identifier": [ {
        "system": "https://mein.krankenhaus.de/fhir/NamingSystem/conditionId",
        "value": "3c890a7e020a9c4857a37fb96caad6f01916fab57414cbead13324056411da96"
      } ],
      "category": [ {
        "coding": [ {
          "system": "http://snomed.info/sct",
          "code": "788415003",
          "display": "Transplant medicine (qualifier value)"
        } ]
      } ],
      "code": {
        "coding": [ {
          "system": "http://fhir.de/CodeSystem/dimdi/icd-10-gm",
          "version": "2021",
          "code": "Z94.0"
        } ]
      },
      "bodySite": [ {
        "coding": [ {
          "system": "http://snomed.info/sct",
          "code": "181414000"
        } ]
      } ],
      "subject": {
        "reference": "Patient/88f1c3d8fe502d936d77a0e85e0a956c89e8d2df685d0320b8988b12607eab08"
      },
      "encounter": {
        "reference": "Encounter/876cf466be82975fad227ac0d34fc28127c5590e8927ab0e4cbc01a3a683cea9"
      },
      "_recordedDate": {
        "extension": [ {
          "url": "http://hl7.org/fhir/StructureDefinition/data-absent-reason",
          "valueCode": "unknown"
        } ]
      }
    },
    "request": {
      "method": "POST",
      "url": "Condition",
      "ifNoneExist": "identifier=https://mein.krankenhaus.de/fhir/NamingSystem/conditionId|6691fa5240ed729fccf81ccf78f25028e3d5d1ef851022e345e289168c83875c"
    }
  }, {
    "fullUrl": "Condition/07d295a91185fb70ede823a8ecf4a8b6f2340ee61aa9f0495e2f567c25b1dce4",
    "resource": {
      "resourceType": "Condition",
      "meta": {
        "profile": [ "https://www.netzwerk-universitaetsmedizin.de/fhir/StructureDefinition/organ-recipient" ]
      },
      "identifier": [ {
        "system": "https://mein.krankenhaus.de/fhir/NamingSystem/conditionId",
        "value": "b5b165dbc9490cba735fdf39f050a1bc5f711ff79503e207cbc9365e10bd034f"
      } ],
      "verificationStatus": {
        "coding": [ {
          "system": "http://terminology.hl7.org/CodeSystem/condition-ver-status",
          "code": "refuted",
          "display": "Refuted"
        }, {
          "system": "http://snomed.info/sct",
          "code": "410594000",
          "display": "Definitely NOT present (qualifier value)"
        } ]
      },
      "category": [ {
        "coding": [ {
          "system": "http://snomed.info/sct",
          "code": "788415003",
          "display": "Transplant medicine (qualifier value)"
        } ]
      } ],
      "code": {
        "coding": [ {
          "system": "http://fhir.de/CodeSystem/dimdi/icd-10-gm",
          "version": "2021",
          "code": "Z94.88"
        } ]
      },
      "bodySite": [ {
        "coding": [ {
          "system": "http://snomed.info/sct",
          "code": "113276009"
        } ]
      } ],
      "subject": {
        "reference": "Patient/88f1c3d8fe502d936d77a0e85e0a956c89e8d2df685d0320b8988b12607eab08"
      },
      "encounter": {
        "reference": "Encounter/876cf466be82975fad227ac0d34fc28127c5590e8927ab0e4cbc01a3a683cea9"
      },
      "_recordedDate": {
        "extension": [ {
          "url": "http://hl7.org/fhir/StructureDefinition/data-absent-reason",
          "valueCode": "unknown"
        } ]
      }
    },
    "request": {
      "method": "POST",
      "url": "Condition",
      "ifNoneExist": "identifier=https://mein.krankenhaus.de/fhir/NamingSystem/conditionId|07d295a91185fb70ede823a8ecf4a8b6f2340ee61aa9f0495e2f567c25b1dce4"
    }
  }, {
    "fullUrl": "Condition/5a461e76b1c067b080a1b6e5ba9d37ea07664209ff11610ff9ce25f253bd05b0",
    "resource": {
      "resourceType": "Condition",
      "meta": {
        "profile": [ "https://www.netzwerk-universitaetsmedizin.de/fhir/StructureDefinition/organ-recipient" ]
      },
      "modifierExtension": [ {
        "url": "https://www.netzwerk-universitaetsmedizin.de/fhir/StructureDefinition/uncertainty-of-presence",
        "valueCodeableConcept": {
          "coding": [ {
            "system": "http://snomed.info/sct",
            "code": "261665006",
            "display": "Unknown (qualifier value)"
          } ],
          "text": "Presence unknown."
        }
      } ],
      "identifier": [ {
        "system": "https://mein.krankenhaus.de/fhir/NamingSystem/conditionId",
        "value": "8b492f1bae1975de956facc1de27b024e76f68b25a905fd5d219176590a5232f"
      } ],
      "category": [ {
        "coding": [ {
          "system": "http://snomed.info/sct",
          "code": "788415003",
          "display": "Transplant medicine (qualifier value)"
        } ]
      } ],
      "code": {
        "coding": [ {
          "system": "http://fhir.de/CodeSystem/dimdi/icd-10-gm",
          "version": "2021",
          "code": "Z94.5"
        } ]
      },
      "bodySite": [ {
        "coding": [ {
          "system": "http://snomed.info/sct",
          "code": "119181002"
        } ]
      } ],
      "subject": {
        "reference": "Patient/88f1c3d8fe502d936d77a0e85e0a956c89e8d2df685d0320b8988b12607eab08"
      },
      "encounter": {
        "reference": "Encounter/876cf466be82975fad227ac0d34fc28127c5590e8927ab0e4cbc01a3a683cea9"
      },
      "_recordedDate": {
        "extension": [ {
          "url": "http://hl7.org/fhir/StructureDefinition/data-absent-reason",
          "valueCode": "unknown"
        } ]
      }
    },
    "request": {
      "method": "POST",
      "url": "Condition",
      "ifNoneExist": "identifier=https://mein.krankenhaus.de/fhir/NamingSystem/conditionId|5a461e76b1c067b080a1b6e5ba9d37ea07664209ff11610ff9ce25f253bd05b0"
    }
  }, {
    "fullUrl": "Condition/7a11b4947970fe4f9cc91165a305db29f29e19fd2ed6485f0b561d363fc840d5",
    "resource": {
      "resourceType": "Condition",
      "meta": {
        "profile": [ "https://www.netzwerk-universitaetsmedizin.de/fhir/StructureDefinition/organ-recipient" ]
      },
      "modifierExtension": [ {
        "url": "https://www.netzwerk-universitaetsmedizin.de/fhir/StructureDefinition/uncertainty-of-presence",
        "valueCodeableConcept": {
          "coding": [ {
            "system": "http://snomed.info/sct",
            "code": "261665006",
            "display": "Unknown (qualifier value)"
          } ],
          "text": "Presence unknown."
        }
      } ],
      "identifier": [ {
        "system": "https://mein.krankenhaus.de/fhir/NamingSystem/conditionId",
        "value": "2255dc2f79ed9691e47e844a79d00a85f948a8b471ca8478622df978b23fbc75"
      } ],
      "category": [ {
        "coding": [ {
          "system": "http://snomed.info/sct",
          "code": "788415003",
          "display": "Transplant medicine (qualifier value)"
        } ]
      } ],
      "code": {
        "coding": [ {
          "system": "http://fhir.de/CodeSystem/dimdi/icd-10-gm",
          "version": "2021",
          "code": "Z94.7"
        } ]
      },
      "bodySite": [ {
        "coding": [ {
          "system": "http://snomed.info/sct",
          "code": "181162001"
        } ]
      } ],
      "subject": {
        "reference": "Patient/88f1c3d8fe502d936d77a0e85e0a956c89e8d2df685d0320b8988b12607eab08"
      },
      "encounter": {
        "reference": "Encounter/876cf466be82975fad227ac0d34fc28127c5590e8927ab0e4cbc01a3a683cea9"
      },
      "_recordedDate": {
        "extension": [ {
          "url": "http://hl7.org/fhir/StructureDefinition/data-absent-reason",
          "valueCode": "unknown"
        } ]
      }
    },
    "request": {
      "method": "POST",
      "url": "Condition",
      "ifNoneExist": "identifier=https://mein.krankenhaus.de/fhir/NamingSystem/conditionId|7a11b4947970fe4f9cc91165a305db29f29e19fd2ed6485f0b561d363fc840d5"
    }
  }, {
    "fullUrl": "Condition/dfeff982e381d9a9081760af1bd94abc5e4535e2bc346bd715807fd9bc980198",
    "resource": {
      "resourceType": "Condition",
      "meta": {
        "profile": [ "https://www.netzwerk-universitaetsmedizin.de/fhir/StructureDefinition/organ-recipient" ]
      },
      "identifier": [ {
        "system": "https://mein.krankenhaus.de/fhir/NamingSystem/conditionId",
        "value": "ffb7b698b2d4cf41c63a97f4ef20362f2171851a3cf2e3a007734595bf0ef29a"
      } ],
      "clinicalStatus": {
        "coding": [ {
          "system": "http://terminology.hl7.org/CodeSystem/condition-clinical",
          "code": "active",
          "display": "Active"
        } ]
      },
      "verificationStatus": {
        "coding": [ {
          "system": "http://terminology.hl7.org/CodeSystem/condition-ver-status",
          "code": "confirmed",
          "display": "Confirmed"
        }, {
          "system": "http://snomed.info/sct",
          "code": "410605003",
          "display": "Confirmed present (qualifier value)"
        } ]
      },
      "category": [ {
        "coding": [ {
          "system": "http://snomed.info/sct",
          "code": "788415003",
          "display": "Transplant medicine (qualifier value)"
        } ]
      } ],
      "code": {
        "coding": [ {
          "system": "http://fhir.de/CodeSystem/dimdi/icd-10-gm",
          "version": "2021",
          "code": "Z94.9"
        } ]
      },
      "bodySite": [ {
        "coding": [ {
          "system": "http://snomed.info/sct",
          "code": "41845008"
        } ]
      } ],
      "subject": {
        "reference": "Patient/88f1c3d8fe502d936d77a0e85e0a956c89e8d2df685d0320b8988b12607eab08"
      },
      "encounter": {
        "reference": "Encounter/876cf466be82975fad227ac0d34fc28127c5590e8927ab0e4cbc01a3a683cea9"
      },
      "_recordedDate": {
        "extension": [ {
          "url": "http://hl7.org/fhir/StructureDefinition/data-absent-reason",
          "valueCode": "unknown"
        } ]
      }
    },
    "request": {
      "method": "POST",
      "url": "Condition",
      "ifNoneExist": "identifier=https://mein.krankenhaus.de/fhir/NamingSystem/conditionId|dfeff982e381d9a9081760af1bd94abc5e4535e2bc346bd715807fd9bc980198"
    }
  }, {
    "fullUrl": "Condition/6376f143f723ca2fc3c9133a9b51c98b2fc19abaf154b833113215d69d8fc7c2",
    "resource": {
      "resourceType": "Condition",
      "meta": {
        "profile": [ "https://www.netzwerk-universitaetsmedizin.de/fhir/StructureDefinition/organ-recipient" ]
      },
      "modifierExtension": [ {
        "url": "https://www.netzwerk-universitaetsmedizin.de/fhir/StructureDefinition/uncertainty-of-presence",
        "valueCodeableConcept": {
          "coding": [ {
            "system": "http://snomed.info/sct",
            "code": "261665006",
            "display": "Unknown (qualifier value)"
          } ],
          "text": "Presence unknown."
        }
      } ],
      "identifier": [ {
        "system": "https://mein.krankenhaus.de/fhir/NamingSystem/conditionId",
        "value": "dcfb2e931bf87f2da54aadba3695c9a552dbba8709d13785fbc802c589b30ec6"
      } ],
      "category": [ {
        "coding": [ {
          "system": "http://snomed.info/sct",
          "code": "788415003",
          "display": "Transplant medicine (qualifier value)"
        } ]
      } ],
      "code": {
        "coding": [ {
          "system": "http://fhir.de/CodeSystem/dimdi/icd-10-gm",
          "version": "2021",
          "code": "Z95.88"
        } ]
      },
      "bodySite": [ {
        "coding": [ {
          "system": "http://snomed.info/sct",
          "code": "181285005"
        } ]
      } ],
      "subject": {
        "reference": "Patient/88f1c3d8fe502d936d77a0e85e0a956c89e8d2df685d0320b8988b12607eab08"
      },
      "encounter": {
        "reference": "Encounter/876cf466be82975fad227ac0d34fc28127c5590e8927ab0e4cbc01a3a683cea9"
      },
      "_recordedDate": {
        "extension": [ {
          "url": "http://hl7.org/fhir/StructureDefinition/data-absent-reason",
          "valueCode": "unknown"
        } ]
      }
    },
    "request": {
      "method": "POST",
      "url": "Condition",
      "ifNoneExist": "identifier=https://mein.krankenhaus.de/fhir/NamingSystem/conditionId|6376f143f723ca2fc3c9133a9b51c98b2fc19abaf154b833113215d69d8fc7c2"
    }
  }, {
    "fullUrl": "Condition/f214f6f5381cc1051a71463c7ca36c3b76159ecea20f243e8c246c297e0931b2",
    "resource": {
      "resourceType": "Condition",
      "meta": {
        "profile": [ "https://www.netzwerk-universitaetsmedizin.de/fhir/StructureDefinition/organ-recipient" ]
      },
      "modifierExtension": [ {
        "url": "https://www.netzwerk-universitaetsmedizin.de/fhir/StructureDefinition/uncertainty-of-presence",
        "valueCodeableConcept": {
          "coding": [ {
            "system": "http://snomed.info/sct",
            "code": "261665006",
            "display": "Unknown (qualifier value)"
          } ],
          "text": "Presence unknown."
        }
      } ],
      "identifier": [ {
        "system": "https://mein.krankenhaus.de/fhir/NamingSystem/conditionId",
        "value": "c6fe932bd0ae2eab02585a676226ecb4c67f51829f61c03d4383c1e8868bbcd9"
      } ],
      "category": [ {
        "coding": [ {
          "system": "http://snomed.info/sct",
          "code": "788415003",
          "display": "Transplant medicine (qualifier value)"
        } ]
      } ],
      "code": {
        "coding": [ {
          "system": "http://fhir.de/CodeSystem/dimdi/icd-10-gm",
          "version": "2021",
          "code": "Z95.5"
        } ]
      },
      "bodySite": [ {
        "coding": [ {
          "system": "http://snomed.info/sct",
          "code": "119206002"
        } ]
      } ],
      "subject": {
        "reference": "Patient/88f1c3d8fe502d936d77a0e85e0a956c89e8d2df685d0320b8988b12607eab08"
      },
      "encounter": {
        "reference": "Encounter/876cf466be82975fad227ac0d34fc28127c5590e8927ab0e4cbc01a3a683cea9"
      },
      "_recordedDate": {
        "extension": [ {
          "url": "http://hl7.org/fhir/StructureDefinition/data-absent-reason",
          "valueCode": "unknown"
        } ]
      }
    },
    "request": {
      "method": "POST",
      "url": "Condition",
      "ifNoneExist": "identifier=https://mein.krankenhaus.de/fhir/NamingSystem/conditionId|f214f6f5381cc1051a71463c7ca36c3b76159ecea20f243e8c246c297e0931b2"
    }
  }, {
    "fullUrl": "Condition/f41c0713a0beec694f37a9f91cc90b24cf39a352426098e9f0e8462ccdc95327",
    "resource": {
      "resourceType": "Condition",
      "meta": {
        "profile": [ "https://www.netzwerk-universitaetsmedizin.de/fhir/StructureDefinition/organ-recipient" ]
      },
      "modifierExtension": [ {
        "url": "https://www.netzwerk-universitaetsmedizin.de/fhir/StructureDefinition/uncertainty-of-presence",
        "valueCodeableConcept": {
          "coding": [ {
            "system": "http://snomed.info/sct",
            "code": "261665006",
            "display": "Unknown (qualifier value)"
          } ],
          "text": "Presence unknown."
        }
      } ],
      "identifier": [ {
        "system": "https://mein.krankenhaus.de/fhir/NamingSystem/conditionId",
        "value": "31afa28f7203cabadf76c524fd69a66c9ca6d4d6a9730dfa3c49072ad97bf6ef"
      } ],
      "category": [ {
        "coding": [ {
          "system": "http://snomed.info/sct",
          "code": "788415003",
          "display": "Transplant medicine (qualifier value)"
        } ]
      } ],
      "code": {
        "coding": [ {
          "system": "http://fhir.de/CodeSystem/dimdi/icd-10-gm",
          "version": "2021",
          "code": "Z94.9"
        } ]
      },
      "bodySite": [ {
        "coding": [ {
          "system": "http://snomed.info/sct",
          "code": "8935007"
        } ]
      } ],
      "subject": {
        "reference": "Patient/88f1c3d8fe502d936d77a0e85e0a956c89e8d2df685d0320b8988b12607eab08"
      },
      "encounter": {
        "reference": "Encounter/876cf466be82975fad227ac0d34fc28127c5590e8927ab0e4cbc01a3a683cea9"
      },
      "_recordedDate": {
        "extension": [ {
          "url": "http://hl7.org/fhir/StructureDefinition/data-absent-reason",
          "valueCode": "unknown"
        } ]
      }
    },
    "request": {
      "method": "POST",
      "url": "Condition",
      "ifNoneExist": "identifier=https://mein.krankenhaus.de/fhir/NamingSystem/conditionId|f41c0713a0beec694f37a9f91cc90b24cf39a352426098e9f0e8462ccdc95327"
    }
  }, {
    "fullUrl": "Condition/c7b17c4869f544c60ded51dc6994e2d683fc606b0c9181fc10d3337a14c1df98",
    "resource": {
      "resourceType": "Condition",
      "meta": {
        "profile": [ "https://www.netzwerk-universitaetsmedizin.de/fhir/StructureDefinition/organ-recipient" ]
      },
      "modifierExtension": [ {
        "url": "https://www.netzwerk-universitaetsmedizin.de/fhir/StructureDefinition/uncertainty-of-presence",
        "valueCodeableConcept": {
          "coding": [ {
            "system": "http://snomed.info/sct",
            "code": "261665006",
            "display": "Unknown (qualifier value)"
          } ],
          "text": "Presence unknown."
        }
      } ],
      "identifier": [ {
        "system": "https://mein.krankenhaus.de/fhir/NamingSystem/conditionId",
        "value": "f7f7870090d971961090abe734061b92aa47e14c3982022f5c62b5abec5259bd"
      } ],
      "category": [ {
        "coding": [ {
          "system": "http://snomed.info/sct",
          "code": "788415003",
          "display": "Transplant medicine (qualifier value)"
        } ]
      } ],
      "code": {
        "coding": [ {
          "system": "http://fhir.de/CodeSystem/dimdi/icd-10-gm",
          "version": "2021",
          "code": "Z94.6"
        } ]
      },
      "bodySite": [ {
        "coding": [ {
          "system": "http://snomed.info/sct",
          "code": "3138006"
        } ]
      } ],
      "subject": {
        "reference": "Patient/88f1c3d8fe502d936d77a0e85e0a956c89e8d2df685d0320b8988b12607eab08"
      },
      "encounter": {
        "reference": "Encounter/876cf466be82975fad227ac0d34fc28127c5590e8927ab0e4cbc01a3a683cea9"
      },
      "_recordedDate": {
        "extension": [ {
          "url": "http://hl7.org/fhir/StructureDefinition/data-absent-reason",
          "valueCode": "unknown"
        } ]
      }
    },
    "request": {
      "method": "POST",
      "url": "Condition",
      "ifNoneExist": "identifier=https://mein.krankenhaus.de/fhir/NamingSystem/conditionId|c7b17c4869f544c60ded51dc6994e2d683fc606b0c9181fc10d3337a14c1df98"
    }
  }, {
    "fullUrl": "Condition/2c4c82ebfd157b39243d47faa90d73238118d224cb58672071b207cac0fd0be2",
    "resource": {
      "resourceType": "Condition",
      "meta": {
        "profile": [ "https://www.netzwerk-universitaetsmedizin.de/fhir/StructureDefinition/organ-recipient" ]
      },
      "identifier": [ {
        "system": "https://mein.krankenhaus.de/fhir/NamingSystem/conditionId",
        "value": "2775c390eebabc89b71afb3dd331520b87be90cbf427160c93b44f4c54a739a1"
      } ],
      "clinicalStatus": {
        "coding": [ {
          "system": "http://terminology.hl7.org/CodeSystem/condition-clinical",
          "code": "active",
          "display": "Active"
        } ]
      },
      "verificationStatus": {
        "coding": [ {
          "system": "http://terminology.hl7.org/CodeSystem/condition-ver-status",
          "code": "confirmed",
          "display": "Confirmed"
        }, {
          "system": "http://snomed.info/sct",
          "code": "410605003",
          "display": "Confirmed present (qualifier value)"
        } ]
      },
      "category": [ {
        "coding": [ {
          "system": "http://snomed.info/sct",
          "code": "788415003",
          "display": "Transplant medicine (qualifier value)"
        } ]
      } ],
      "code": {
        "coding": [ {
          "system": "http://fhir.de/CodeSystem/dimdi/icd-10-gm",
          "version": "2021",
          "code": "Z94.9"
        } ]
      },
      "bodySite": [ {
        "coding": [ {
          "system": "http://snomed.info/sct",
          "code": "309312004"
        } ]
      } ],
      "subject": {
        "reference": "Patient/88f1c3d8fe502d936d77a0e85e0a956c89e8d2df685d0320b8988b12607eab08"
      },
      "encounter": {
        "reference": "Encounter/876cf466be82975fad227ac0d34fc28127c5590e8927ab0e4cbc01a3a683cea9"
      },
      "_recordedDate": {
        "extension": [ {
          "url": "http://hl7.org/fhir/StructureDefinition/data-absent-reason",
          "valueCode": "unknown"
        } ]
      }
    },
    "request": {
      "method": "POST",
      "url": "Condition",
      "ifNoneExist": "identifier=https://mein.krankenhaus.de/fhir/NamingSystem/conditionId|2c4c82ebfd157b39243d47faa90d73238118d224cb58672071b207cac0fd0be2"
    }
  }, {
    "fullUrl": "Condition/00637977b40019209b19852f1334d7a6e14204a6ed9eedef1ea2a2801558b37a",
    "resource": {
      "resourceType": "Condition",
      "meta": {
        "profile": [ "https://www.netzwerk-universitaetsmedizin.de/fhir/StructureDefinition/organ-recipient" ]
      },
      "identifier": [ {
        "system": "https://mein.krankenhaus.de/fhir/NamingSystem/conditionId",
        "value": "b710df72657fda2266870ba3f5a1b755d1e160eb644bb20af4ca3f685f65d068"
      } ],
      "clinicalStatus": {
        "coding": [ {
          "system": "http://terminology.hl7.org/CodeSystem/condition-clinical",
          "code": "active",
          "display": "Active"
        } ]
      },
      "verificationStatus": {
        "coding": [ {
          "system": "http://terminology.hl7.org/CodeSystem/condition-ver-status",
          "code": "confirmed",
          "display": "Confirmed"
        }, {
          "system": "http://snomed.info/sct",
          "code": "410605003",
          "display": "Confirmed present (qualifier value)"
        } ]
      },
      "category": [ {
        "coding": [ {
          "system": "http://snomed.info/sct",
          "code": "788415003",
          "display": "Transplant medicine (qualifier value)"
        } ]
      } ],
      "code": {
        "coding": [ {
          "system": "http://fhir.de/CodeSystem/dimdi/icd-10-gm",
          "version": "2021",
          "code": "Z94.9"
        } ]
      },
      "bodySite": [ {
        "coding": [ {
          "system": "http://snomed.info/sct",
          "code": "13024002"
        } ]
      } ],
      "subject": {
        "reference": "Patient/88f1c3d8fe502d936d77a0e85e0a956c89e8d2df685d0320b8988b12607eab08"
      },
      "encounter": {
        "reference": "Encounter/876cf466be82975fad227ac0d34fc28127c5590e8927ab0e4cbc01a3a683cea9"
      },
      "_recordedDate": {
        "extension": [ {
          "url": "http://hl7.org/fhir/StructureDefinition/data-absent-reason",
          "valueCode": "unknown"
        } ]
      }
    },
    "request": {
      "method": "POST",
      "url": "Condition",
      "ifNoneExist": "identifier=https://mein.krankenhaus.de/fhir/NamingSystem/conditionId|00637977b40019209b19852f1334d7a6e14204a6ed9eedef1ea2a2801558b37a"
    }
  }, {
    "fullUrl": "Condition/ae00efd04cd7c2b0f2dd74f43aad2e2c14693fe8ddae4db23706805c1deefb91",
    "resource": {
      "resourceType": "Condition",
      "meta": {
        "profile": [ "https://www.netzwerk-universitaetsmedizin.de/fhir/StructureDefinition/diabetes-mellitus" ]
      },
      "identifier": [ {
        "system": "https://mein.krankenhaus.de/fhir/NamingSystem/conditionId",
        "value": "1a6a0008984afbf6967dcd4cbb262ea0c55865ef78c1fce0894e26e09d26e392"
      } ],
      "verificationStatus": {
        "coding": [ {
          "system": "http://terminology.hl7.org/CodeSystem/condition-ver-status",
          "code": "confirmed",
          "display": "Confirmed"
        }, {
          "system": "http://snomed.info/sct",
          "code": "410605003",
          "display": "Confirmed present (qualifier value)"
        } ]
      },
      "category": [ {
        "coding": [ {
          "system": "http://snomed.info/sct",
          "code": "408475000",
          "display": "Diabetic medicine (qualifier value)"
        } ]
      } ],
      "code": {
        "coding": [ {
          "system": "http://fhir.de/CodeSystem/dimdi/icd-10-gm",
          "version": "2021",
          "code": "E13.9"
        }, {
          "system": "http://snomed.info/sct",
          "code": "8801005"
        } ]
      },
      "subject": {
        "reference": "Patient/88f1c3d8fe502d936d77a0e85e0a956c89e8d2df685d0320b8988b12607eab08"
      },
      "encounter": {
        "reference": "Encounter/876cf466be82975fad227ac0d34fc28127c5590e8927ab0e4cbc01a3a683cea9"
      },
      "_recordedDate": {
        "extension": [ {
          "url": "http://hl7.org/fhir/StructureDefinition/data-absent-reason",
          "valueCode": "unknown"
        } ]
      }
    },
    "request": {
      "method": "POST",
      "url": "Condition",
      "ifNoneExist": "identifier=https://mein.krankenhaus.de/fhir/NamingSystem/conditionId|ae00efd04cd7c2b0f2dd74f43aad2e2c14693fe8ddae4db23706805c1deefb91"
    }
  }, {
    "fullUrl": "Condition/512584bbcc6600055f35f9ce67076244c4ce4f5e74786ffce07b93e27c1bf85b",
    "resource": {
      "resourceType": "Condition",
      "meta": {
        "profile": [ "https://www.netzwerk-universitaetsmedizin.de/fhir/StructureDefinition/malignant-neoplastic-disease" ]
      },
      "identifier": [ {
        "system": "https://mein.krankenhaus.de/fhir/NamingSystem/conditionId",
        "value": "45f44185a58a686557a8b0f9e629f9f5a4f2ae37e5b1d7e241b8c46910bbe682"
      } ],
      "clinicalStatus": {
        "coding": [ {
          "system": "http://terminology.hl7.org/CodeSystem/condition-clinical",
          "code": "active",
          "display": "Active"
        } ]
      },
      "verificationStatus": {
        "coding": [ {
          "system": "http://terminology.hl7.org/CodeSystem/condition-ver-status",
          "code": "confirmed",
          "display": "Confirmed"
        }, {
          "system": "http://snomed.info/sct",
          "code": "410605003",
          "display": "Confirmed present (qualifier value)"
        } ]
      },
      "category": [ {
        "coding": [ {
          "system": "http://snomed.info/sct",
          "code": "394593009",
          "display": "Medical oncology (qualifier value)"
        } ]
      } ],
      "code": {
        "coding": [ {
          "system": "http://fhir.de/CodeSystem/dimdi/icd-10-gm",
          "version": "2021",
          "code": "C80.9"
        }, {
          "system": "http://snomed.info/sct",
          "code": "363346000"
        } ]
      },
      "subject": {
        "reference": "Patient/88f1c3d8fe502d936d77a0e85e0a956c89e8d2df685d0320b8988b12607eab08"
      },
      "encounter": {
        "reference": "Encounter/876cf466be82975fad227ac0d34fc28127c5590e8927ab0e4cbc01a3a683cea9"
      },
      "_recordedDate": {
        "extension": [ {
          "url": "http://hl7.org/fhir/StructureDefinition/data-absent-reason",
          "valueCode": "unknown"
        } ]
      }
    },
    "request": {
      "method": "POST",
      "url": "Condition",
      "ifNoneExist": "identifier=https://mein.krankenhaus.de/fhir/NamingSystem/conditionId|512584bbcc6600055f35f9ce67076244c4ce4f5e74786ffce07b93e27c1bf85b"
    }
  }, {
    "fullUrl": "Condition/0b6d38a9c1070a4ddc752e5026042f105d0f9a5de6d8a4073cdfc3e85ca314d9",
    "resource": {
      "resourceType": "Condition",
      "meta": {
        "profile": [ "https://www.netzwerk-universitaetsmedizin.de/fhir/StructureDefinition/chronic-kidney-diseases" ]
      },
      "identifier": [ {
        "system": "https://mein.krankenhaus.de/fhir/NamingSystem/conditionId",
        "value": "8ac2adfb8bf81268f37043651edf4f5402d78c6c21b56358859055ceb4d58c78"
      } ],
      "clinicalStatus": {
        "coding": [ {
          "system": "http://terminology.hl7.org/CodeSystem/condition-clinical",
          "code": "active",
          "display": "Active"
        } ]
      },
      "verificationStatus": {
        "coding": [ {
          "system": "http://terminology.hl7.org/CodeSystem/condition-ver-status",
          "code": "confirmed",
          "display": "Confirmed"
        }, {
          "system": "http://snomed.info/sct",
          "code": "410605003",
          "display": "Confirmed present (qualifier value)"
        } ]
      },
      "category": [ {
        "coding": [ {
          "system": "http://snomed.info/sct",
          "code": "394589003",
          "display": "Nephrology (qualifier value)"
        } ]
      } ],
      "code": {
        "coding": [ {
          "system": "http://fhir.de/CodeSystem/dimdi/icd-10-gm",
          "version": "2021",
          "code": "Z99.2"
        }, {
          "system": "http://snomed.info/sct",
          "code": "714152005"
        } ]
      },
      "subject": {
        "reference": "Patient/88f1c3d8fe502d936d77a0e85e0a956c89e8d2df685d0320b8988b12607eab08"
      },
      "encounter": {
        "reference": "Encounter/876cf466be82975fad227ac0d34fc28127c5590e8927ab0e4cbc01a3a683cea9"
      },
      "_recordedDate": {
        "extension": [ {
          "url": "http://hl7.org/fhir/StructureDefinition/data-absent-reason",
          "valueCode": "unknown"
        } ]
      }
    },
    "request": {
      "method": "POST",
      "url": "Condition",
      "ifNoneExist": "identifier=https://mein.krankenhaus.de/fhir/NamingSystem/conditionId|0b6d38a9c1070a4ddc752e5026042f105d0f9a5de6d8a4073cdfc3e85ca314d9"
    }
  }, {
    "fullUrl": "Condition/af1ee9572a29ef714b5555f504c53253dd0a46c2b28050a3a5a8012c565538f8",
    "resource": {
      "resourceType": "Condition",
      "meta": {
        "profile": [ "https://www.netzwerk-universitaetsmedizin.de/fhir/StructureDefinition/gastrointestinal-ulcers" ]
      },
      "identifier": [ {
        "system": "https://mein.krankenhaus.de/fhir/NamingSystem/conditionId",
        "value": "9b6b35410ee30efe3239de42862fbf41d31aa56e383095963c80a8574eaac6e0"
      } ],
      "verificationStatus": {
        "coding": [ {
          "system": "http://terminology.hl7.org/CodeSystem/condition-ver-status",
          "code": "refuted",
          "display": "Refuted"
        }, {
          "system": "http://snomed.info/sct",
          "code": "410594000",
          "display": "Definitely NOT present (qualifier value)"
        } ]
      },
      "category": [ {
        "coding": [ {
          "system": "http://snomed.info/sct",
          "code": "394584008",
          "display": "Gastroenterology (qualifier value))"
        } ]
      } ],
      "code": {
        "coding": [ {
          "system": "http://fhir.de/CodeSystem/dimdi/icd-10-gm",
          "version": "2021",
          "code": "K28"
        }, {
          "system": "http://snomed.info/sct",
          "code": "40845000"
        } ]
      },
      "subject": {
        "reference": "Patient/88f1c3d8fe502d936d77a0e85e0a956c89e8d2df685d0320b8988b12607eab08"
      },
      "encounter": {
        "reference": "Encounter/876cf466be82975fad227ac0d34fc28127c5590e8927ab0e4cbc01a3a683cea9"
      },
      "_recordedDate": {
        "extension": [ {
          "url": "http://hl7.org/fhir/StructureDefinition/data-absent-reason",
          "valueCode": "unknown"
        } ]
      }
    },
    "request": {
      "method": "POST",
      "url": "Condition",
      "ifNoneExist": "identifier=https://mein.krankenhaus.de/fhir/NamingSystem/conditionId|af1ee9572a29ef714b5555f504c53253dd0a46c2b28050a3a5a8012c565538f8"
    }
  }, {
    "fullUrl": "Observation/2b68e63723beb3e7af8f8c98d110cbde7c57ddaf37ebf80ce60397488bcf8c67",
    "resource": {
      "resourceType": "Observation",
      "meta": {
        "profile": [ "https://www.netzwerk-universitaetsmedizin.de/fhir/StructureDefinition/smoking-status" ]
      },
      "identifier": [ {
        "system": "https://mein.krankenhaus.de/fhir/NamingSystem/observationId",
        "value": "16beca880e0a757cf5592cdffbc8e508fedb60f7e381af05e128f8b5f4784654"
      } ],
      "status": "final",
      "category": [ {
        "coding": [ {
          "system": "http://terminology.hl7.org/CodeSystem/observation-category",
          "code": "social-history",
          "display": "Social History"
        } ]
      } ],
      "code": {
        "coding": [ {
          "system": "http://loinc.org",
          "code": "72166-2"
        } ]
      },
      "subject": {
        "reference": "Patient/88f1c3d8fe502d936d77a0e85e0a956c89e8d2df685d0320b8988b12607eab08"
      },
      "encounter": {
        "reference": "Encounter/876cf466be82975fad227ac0d34fc28127c5590e8927ab0e4cbc01a3a683cea9"
      },
      "_effectiveDateTime": {
        "extension": [ {
          "url": "http://hl7.org/fhir/StructureDefinition/data-absent-reason",
          "valueCode": "unknown"
        } ]
      },
      "valueCodeableConcept": {
        "coding": [ {
          "system": "http://loinc.org",
          "code": "LA18980-5"
        } ]
      }
    },
    "request": {
      "method": "POST",
      "url": "Observation",
      "ifNoneExist": "identifier=https://mein.krankenhaus.de/fhir/NamingSystem/observationId|2b68e63723beb3e7af8f8c98d110cbde7c57ddaf37ebf80ce60397488bcf8c67"
    }
  }, {
    "fullUrl": "Procedure/d192bee0abeb7aef4efcd9ad53855fff6fd504212a9ab402874ce072e3c5b406",
    "resource": {
      "resourceType": "Procedure",
      "meta": {
        "profile": [ "https://www.netzwerk-universitaetsmedizin.de/fhir/StructureDefinition/respiratory-therapies" ]
      },
      "identifier": [ {
        "system": "https://mein.krankenhaus.de/fhir/NamingSystem/procedureId",
        "value": "a4646e39983f352a867cbad0e2b74253cebeb8cb20df39c1772a0784d4dfc64c"
      } ],
      "status": "in-progress",
      "category": {
        "coding": [ {
          "system": "http://snomed.info/sct",
          "code": "277132007",
          "display": "Therapeutic procedure (procedure)"
        } ]
      },
      "code": {
        "coding": [ {
          "system": "http://snomed.info/sct",
          "code": "53950000"
        } ]
      },
      "subject": {
        "reference": "Patient/88f1c3d8fe502d936d77a0e85e0a956c89e8d2df685d0320b8988b12607eab08"
      },
      "encounter": {
        "reference": "Encounter/876cf466be82975fad227ac0d34fc28127c5590e8927ab0e4cbc01a3a683cea9"
      },
      "_performedDateTime": {
        "extension": [ {
          "url": "http://hl7.org/fhir/StructureDefinition/data-absent-reason",
          "valueCode": "unknown"
        } ]
      }
    },
    "request": {
      "method": "POST",
      "url": "Procedure",
      "ifNoneExist": "identifier=https://mein.krankenhaus.de/fhir/NamingSystem/procedureId|d192bee0abeb7aef4efcd9ad53855fff6fd504212a9ab402874ce072e3c5b406"
    }
  }, {
    "fullUrl": "Immunization/358415a0d5632555272fea577a5665fa667a7e3533a1c33dabefc35c92f4976e",
    "resource": {
      "resourceType": "Immunization",
      "meta": {
        "profile": [ "https://www.netzwerk-universitaetsmedizin.de/fhir/StructureDefinition/immunization" ]
      },
      "identifier": [ {
        "system": "https://mein.krankenhaus.de/fhir/NamingSystem/immunizationId",
        "value": "1f237b9f373368b6fff98f7126d8dca7d8e2e3dd4c4b9c6471d27a2dd22bb160"
      } ],
      "status": "completed",
      "vaccineCode": {
        "coding": [ {
          "system": "http://snomed.info/sct",
          "code": "836377006"
        } ]
      },
      "patient": {
        "reference": "Patient/88f1c3d8fe502d936d77a0e85e0a956c89e8d2df685d0320b8988b12607eab08"
      },
      "encounter": {
        "reference": "Encounter/876cf466be82975fad227ac0d34fc28127c5590e8927ab0e4cbc01a3a683cea9"
      },
      "occurrenceDateTime": "2020-02-22",
      "protocolApplied": [ {
        "targetDisease": [ {
          "coding": [ {
            "system": "http://snomed.info/sct",
            "code": "6142004"
          } ]
        } ],
        "_doseNumberString": {
          "extension": [ {
            "url": "http://hl7.org/fhir/StructureDefinition/data-absent-reason",
            "valueCode": "unknown"
          } ]
        }
      } ]
    },
    "request": {
      "method": "POST",
      "url": "Immunization",
      "ifNoneExist": "identifier=https://mein.krankenhaus.de/fhir/NamingSystem/immunizationId|358415a0d5632555272fea577a5665fa667a7e3533a1c33dabefc35c92f4976e"
    }
  }, {
    "fullUrl": "Immunization/abd4c8b40fd0e5eb46ede3b4c00d7669d998a86414bc97b163c00999935581cb",
    "resource": {
      "resourceType": "Immunization",
      "meta": {
        "profile": [ "https://www.netzwerk-universitaetsmedizin.de/fhir/StructureDefinition/immunization" ]
      },
      "identifier": [ {
        "system": "https://mein.krankenhaus.de/fhir/NamingSystem/immunizationId",
        "value": "a06cba869d1ecf3f661cd4da1be60e7336ef904379240c9252b17e0e35061cf1"
      } ],
      "status": "completed",
      "vaccineCode": {
        "coding": [ {
          "system": "http://snomed.info/sct",
          "code": "836398006"
        } ]
      },
      "patient": {
        "reference": "Patient/88f1c3d8fe502d936d77a0e85e0a956c89e8d2df685d0320b8988b12607eab08"
      },
      "encounter": {
        "reference": "Encounter/876cf466be82975fad227ac0d34fc28127c5590e8927ab0e4cbc01a3a683cea9"
      },
      "occurrenceDateTime": "2020-09-17",
      "protocolApplied": [ {
        "targetDisease": [ {
          "coding": [ {
            "system": "http://snomed.info/sct",
            "code": "16814004"
          } ]
        } ],
        "_doseNumberString": {
          "extension": [ {
            "url": "http://hl7.org/fhir/StructureDefinition/data-absent-reason",
            "valueCode": "unknown"
          } ]
        }
      } ]
    },
    "request": {
      "method": "POST",
      "url": "Immunization",
      "ifNoneExist": "identifier=https://mein.krankenhaus.de/fhir/NamingSystem/immunizationId|abd4c8b40fd0e5eb46ede3b4c00d7669d998a86414bc97b163c00999935581cb"
    }
  }, {
    "fullUrl": "Immunization/ac08e8a852b4d3e7895d92802699be0d7eb9923fb76ea8f4a246a2337fafd5ea",
    "resource": {
      "resourceType": "Immunization",
      "meta": {
        "profile": [ "https://www.netzwerk-universitaetsmedizin.de/fhir/StructureDefinition/immunization" ]
      },
      "identifier": [ {
        "system": "https://mein.krankenhaus.de/fhir/NamingSystem/immunizationId",
        "value": "1dff9dd9546ccfdab5117ef8b7ce9fde7f5e200c6f4009c3623adf67e7b4603b"
      } ],
      "status": "completed",
      "vaccineCode": {
        "coding": [ {
          "system": "http://snomed.info/sct",
          "code": "1119349007"
        } ]
      },
      "patient": {
        "reference": "Patient/88f1c3d8fe502d936d77a0e85e0a956c89e8d2df685d0320b8988b12607eab08"
      },
      "encounter": {
        "reference": "Encounter/876cf466be82975fad227ac0d34fc28127c5590e8927ab0e4cbc01a3a683cea9"
      },
      "occurrenceDateTime": "2020-08-29",
      "protocolApplied": [ {
        "targetDisease": [ {
          "coding": [ {
            "system": "http://snomed.info/sct",
            "code": "840539006"
          } ]
        } ],
        "_doseNumberString": {
          "extension": [ {
            "url": "http://hl7.org/fhir/StructureDefinition/data-absent-reason",
            "valueCode": "unknown"
          } ]
        }
      } ]
    },
    "request": {
      "method": "POST",
      "url": "Immunization",
      "ifNoneExist": "identifier=https://mein.krankenhaus.de/fhir/NamingSystem/immunizationId|ac08e8a852b4d3e7895d92802699be0d7eb9923fb76ea8f4a246a2337fafd5ea"
    }
  }, {
    "fullUrl": "Consent/0aa78448b4e3c520994b3a89b252285259894f16101fa1ec4cb85ac3897e5caf",
    "resource": {
      "resourceType": "Consent",
      "meta": {
        "profile": [ "https://www.netzwerk-universitaetsmedizin.de/fhir/StructureDefinition/do-not-resuscitate-order" ]
      },
      "identifier": [ {
        "system": "https://mein.krankenhaus.de/fhir/NamingSystem/consentId",
        "value": "5e3c2a189a5a6a23a24b77a301416f488671b6600658efbacb12033687b8bc99"
      } ],
      "status": "active",
      "scope": {
        "coding": [ {
          "system": "http://terminology.hl7.org/CodeSystem/consentscope",
          "code": "adr",
          "display": "Advanced Care Directive"
        } ]
      },
      "category": [ {
        "coding": [ {
          "system": "http://terminology.hl7.org/CodeSystem/consentcategorycodes",
          "code": "dnr",
          "display": "Do Not Resuscitate"
        } ]
      } ],
      "patient": {
        "reference": "Patient/88f1c3d8fe502d936d77a0e85e0a956c89e8d2df685d0320b8988b12607eab08"
      },
      "policy": [ {
        "uri": "https://www.aerzteblatt.de/archiv/65440/DNR-Anordnungen-Das-fehlende-Bindeglied"
      } ],
      "provision": {
        "code": [ {
          "coding": [ {
            "system": "http://snomed.info/sct",
            "code": "261665006"
          } ]
        } ]
      }
    },
    "request": {
      "method": "POST",
      "url": "Consent",
      "ifNoneExist": "identifier=https://mein.krankenhaus.de/fhir/NamingSystem/consentId|0aa78448b4e3c520994b3a89b252285259894f16101fa1ec4cb85ac3897e5caf"
    }
  }, {
    "fullUrl": "Observation/187e3f0eaf009999a342585322fcf0dd4a12b42e07c5fd1f9b18616f4bdd5c68",
    "resource": {
      "resourceType": "Observation",
      "meta": {
        "profile": [ "https://www.netzwerk-universitaetsmedizin.de/fhir/StructureDefinition/sex-assigned-at-birth" ]
      },
      "identifier": [ {
        "system": "https://mein.krankenhaus.de/fhir/NamingSystem/observationId",
        "value": "6207a99dd990e77efa54ee977f0b5cd95b2c9caa6dde1a74f4853f6a7de45567"
      } ],
      "status": "final",
      "category": [ {
        "coding": [ {
          "system": "http://terminology.hl7.org/CodeSystem/observation-category",
          "code": "social-history",
          "display": "Social History"
        } ]
      } ],
      "code": {
        "coding": [ {
          "system": "http://loinc.org",
          "code": "76689-9"
        } ]
      },
      "subject": {
        "reference": "Patient/88f1c3d8fe502d936d77a0e85e0a956c89e8d2df685d0320b8988b12607eab08"
      },
      "encounter": {
        "reference": "Encounter/876cf466be82975fad227ac0d34fc28127c5590e8927ab0e4cbc01a3a683cea9"
      },
      "_effectiveDateTime": {
        "extension": [ {
          "url": "http://hl7.org/fhir/StructureDefinition/data-absent-reason",
          "valueCode": "unknown"
        } ]
      },
      "valueCodeableConcept": {
        "coding": [ {
          "system": "http://fhir.de/CodeSystem/gender-amtlich-de",
          "code": "D"
        } ]
      }
    },
    "request": {
      "method": "POST",
      "url": "Observation",
      "ifNoneExist": "identifier=https://mein.krankenhaus.de/fhir/NamingSystem/observationId|187e3f0eaf009999a342585322fcf0dd4a12b42e07c5fd1f9b18616f4bdd5c68"
    }
  }, {
    "fullUrl": "Observation/a9bf9e2d7f9092d9ffbff535d44da1bfb060931ccd17a22d1a22c15f942d8e94",
    "resource": {
      "resourceType": "Observation",
      "meta": {
        "profile": [ "https://www.netzwerk-universitaetsmedizin.de/fhir/StructureDefinition/frailty-score" ]
      },
      "identifier": [ {
        "type": {
          "coding": [ {
            "system": "http://terminology.hl7.org/CodeSystem/v2-0203",
            "code": "OBI",
            "display": "Observation Instance Identifier"
          } ]
        },
        "system": "https://mein.krankenhaus.de/fhir/NamingSystem/observationId",
        "value": "d9571dd7082b806afb885378429e47234f95c6ec72583c93beb600f5bafe2001",
        "assigner": {
          "reference": "Organization/3a4f3433bce81181bad2d8e0b8fafccf7dc800bc06f29be73dcb38b750a48f9a"
        }
      } ],
      "status": "final",
      "category": [ {
        "coding": [ {
          "system": "http://terminology.hl7.org/CodeSystem/observation-category",
          "code": "survey",
          "display": "Survey"
        } ]
      } ],
      "code": {
        "coding": [ {
          "system": "http://snomed.info/sct",
          "code": "763264000"
        } ],
        "text": "Frailty Scale Score"
      },
      "subject": {
        "reference": "Patient/88f1c3d8fe502d936d77a0e85e0a956c89e8d2df685d0320b8988b12607eab08"
      },
      "encounter": {
        "reference": "Encounter/876cf466be82975fad227ac0d34fc28127c5590e8927ab0e4cbc01a3a683cea9"
      },
      "_effectiveDateTime": {
        "extension": [ {
          "url": "http://hl7.org/fhir/StructureDefinition/data-absent-reason",
          "valueCode": "unknown"
        } ]
      },
      "valueCodeableConcept": {
        "coding": [ {
          "system": "https://www.netzwerk-universitaetsmedizin.de/fhir/CodeSystem/frailty-score",
          "code": "8"
        } ]
      },
      "method": {
        "coding": [ {
          "system": "http://snomed.info/sct",
          "code": "445414007",
          "display": "Canadian Study of Health and Aging clinical frailty scale"
        } ]
      }
    },
    "request": {
      "method": "POST",
      "url": "Observation",
      "ifNoneExist": "identifier=https://mein.krankenhaus.de/fhir/NamingSystem/observationId|a9bf9e2d7f9092d9ffbff535d44da1bfb060931ccd17a22d1a22c15f942d8e94"
    }
  }, {
    "fullUrl": "Observation/cdcd4b66f78c7b071cdf131cc53af82307eee6101f0bb7fd0ca3454a8b5cf447",
    "resource": {
      "resourceType": "Observation",
      "meta": {
        "profile": [ "https://www.netzwerk-universitaetsmedizin.de/fhir/StructureDefinition/body-weight" ]
      },
      "identifier": [ {
        "type": {
          "coding": [ {
            "system": "http://terminology.hl7.org/CodeSystem/v2-0203",
            "code": "OBI",
            "display": "Observation Instance Identifier"
          } ]
        },
        "system": "https://mein.krankenhaus.de/fhir/NamingSystem/observationId",
        "value": "751cd35e9aa51a5e9d7f6b04195c780741ab0d4fc9e71242c14630d1f8573528",
        "assigner": {
          "reference": "Organization/3a4f3433bce81181bad2d8e0b8fafccf7dc800bc06f29be73dcb38b750a48f9a"
        }
      } ],
      "status": "final",
      "category": [ {
        "coding": [ {
          "system": "http://terminology.hl7.org/CodeSystem/observation-category",
          "code": "vital-signs",
          "display": "Vital Signs"
        } ]
      } ],
      "code": {
        "coding": [ {
          "system": "http://loinc.org",
          "code": "29463-7"
        }, {
          "system": "http://snomed.info/sct",
          "code": "27113001"
        } ],
        "text": "Body Weight"
      },
      "subject": {
        "reference": "Patient/88f1c3d8fe502d936d77a0e85e0a956c89e8d2df685d0320b8988b12607eab08"
      },
      "encounter": {
        "reference": "Encounter/876cf466be82975fad227ac0d34fc28127c5590e8927ab0e4cbc01a3a683cea9"
      },
      "_effectiveDateTime": {
        "extension": [ {
          "url": "http://hl7.org/fhir/StructureDefinition/data-absent-reason",
          "valueCode": "unknown"
        } ]
      },
      "valueQuantity": {
        "value": 123,
        "unit": "kilogram",
        "system": "http://unitsofmeasure.org",
        "code": "kg"
      }
    },
    "request": {
      "method": "POST",
      "url": "Observation",
      "ifNoneExist": "identifier=https://mein.krankenhaus.de/fhir/NamingSystem/observationId|cdcd4b66f78c7b071cdf131cc53af82307eee6101f0bb7fd0ca3454a8b5cf447"
    }
  }, {
    "fullUrl": "Observation/0d28c114db17fc73797be7d7d61e0d222cfb6b82dbe9311b12fe5d34c6b61672",
    "resource": {
      "resourceType": "Observation",
      "meta": {
        "profile": [ "https://www.netzwerk-universitaetsmedizin.de/fhir/StructureDefinition/body-height" ]
      },
      "identifier": [ {
        "type": {
          "coding": [ {
            "system": "http://terminology.hl7.org/CodeSystem/v2-0203",
            "code": "OBI",
            "display": "Observation Instance Identifier"
          } ]
        },
        "system": "https://mein.krankenhaus.de/fhir/NamingSystem/observationId",
        "value": "81d069071f0a0aecc226e3de4515a0deb4eebadb97f52147dd5af64acda35855",
        "assigner": {
          "reference": "Organization/3a4f3433bce81181bad2d8e0b8fafccf7dc800bc06f29be73dcb38b750a48f9a"
        }
      } ],
      "status": "final",
      "category": [ {
        "coding": [ {
          "system": "http://terminology.hl7.org/CodeSystem/observation-category",
          "code": "vital-signs",
          "display": "Vital Signs"
        } ]
      } ],
      "code": {
        "coding": [ {
          "system": "http://loinc.org",
          "code": "8302-2"
        }, {
          "system": "http://snomed.info/sct",
          "code": "50373000"
        } ],
        "text": "Body height"
      },
      "subject": {
        "reference": "Patient/88f1c3d8fe502d936d77a0e85e0a956c89e8d2df685d0320b8988b12607eab08"
      },
      "encounter": {
        "reference": "Encounter/876cf466be82975fad227ac0d34fc28127c5590e8927ab0e4cbc01a3a683cea9"
      },
      "_effectiveDateTime": {
        "extension": [ {
          "url": "http://hl7.org/fhir/StructureDefinition/data-absent-reason",
          "valueCode": "unknown"
        } ]
      },
      "valueQuantity": {
        "value": 155,
        "unit": "centimeter",
        "system": "http://unitsofmeasure.org",
        "code": "cm"
      }
    },
    "request": {
      "method": "POST",
      "url": "Observation",
      "ifNoneExist": "identifier=https://mein.krankenhaus.de/fhir/NamingSystem/observationId|0d28c114db17fc73797be7d7d61e0d222cfb6b82dbe9311b12fe5d34c6b61672"
    }
  }, {
    "fullUrl": "Procedure/7aa908d27c409142bdbf94d028eded8ed5a9b43510a1e8a3733931a62b42d35f",
    "resource": {
      "resourceType": "Procedure",
      "meta": {
        "profile": [ "https://www.netzwerk-universitaetsmedizin.de/fhir/StructureDefinition/dialysis" ]
      },
      "identifier": [ {
        "system": "https://mein.krankenhaus.de/fhir/NamingSystem/procedureId",
        "value": "7b0e4c1284b0191bfd77e2b6fe62718656a4aee4143d3316f50306a2c210e074"
      } ],
      "status": "not-done",
      "category": {
        "coding": [ {
          "system": "http://snomed.info/sct",
          "code": "277132007",
          "display": "Therapeutic procedure (procedure)"
        } ]
      },
      "code": {
        "coding": [ {
          "system": "http://snomed.info/sct",
          "code": "108241001"
        } ],
        "text": "Dialysis"
      },
      "subject": {
        "reference": "Patient/88f1c3d8fe502d936d77a0e85e0a956c89e8d2df685d0320b8988b12607eab08"
      },
      "encounter": {
        "reference": "Encounter/876cf466be82975fad227ac0d34fc28127c5590e8927ab0e4cbc01a3a683cea9"
      },
      "_performedDateTime": {
        "extension": [ {
          "url": "http://hl7.org/fhir/StructureDefinition/data-absent-reason",
          "valueCode": "not-performed"
        } ]
      }
    },
    "request": {
      "method": "POST",
      "url": "Procedure",
      "ifNoneExist": "identifier=https://mein.krankenhaus.de/fhir/NamingSystem/procedureId|7aa908d27c409142bdbf94d028eded8ed5a9b43510a1e8a3733931a62b42d35f"
    }
  }, {
    "fullUrl": "Procedure/fdcf73339164ff41e46bc731b617ff195b15372c8ed56b91a3bda346820a4859",
    "resource": {
      "resourceType": "Procedure",
      "meta": {
        "profile": [ "https://www.netzwerk-universitaetsmedizin.de/fhir/StructureDefinition/apheresis" ]
      },
      "identifier": [ {
        "system": "https://mein.krankenhaus.de/fhir/NamingSystem/procedureId",
        "value": "9a1c63bb5af38d7d8899f3bd8cb2218d3a51eb230a18207bf96321119b053f93"
      } ],
      "status": "unknown",
      "category": {
        "coding": [ {
          "system": "http://snomed.info/sct",
          "code": "277132007",
          "display": "Therapeutic procedure (procedure)"
        } ]
      },
      "code": {
        "coding": [ {
          "system": "http://snomed.info/sct",
          "code": "127788007"
        } ],
        "text": "Apheresis"
      },
      "subject": {
        "reference": "Patient/88f1c3d8fe502d936d77a0e85e0a956c89e8d2df685d0320b8988b12607eab08"
      },
      "encounter": {
        "reference": "Encounter/876cf466be82975fad227ac0d34fc28127c5590e8927ab0e4cbc01a3a683cea9"
      },
      "_performedDateTime": {
        "extension": [ {
          "url": "http://hl7.org/fhir/StructureDefinition/data-absent-reason",
          "valueCode": "unknown"
        } ]
      }
    },
    "request": {
      "method": "POST",
      "url": "Procedure",
      "ifNoneExist": "identifier=https://mein.krankenhaus.de/fhir/NamingSystem/procedureId|fdcf73339164ff41e46bc731b617ff195b15372c8ed56b91a3bda346820a4859"
    }
  }, {
    "fullUrl": "Procedure/88d160555c583bc87e347a9bc10940f84dbac06cefb94e397c1347af2651c512",
    "resource": {
      "resourceType": "Procedure",
      "meta": {
        "profile": [ "https://www.netzwerk-universitaetsmedizin.de/fhir/StructureDefinition/prone-position" ]
      },
      "identifier": [ {
        "system": "https://mein.krankenhaus.de/fhir/NamingSystem/procedureId",
        "value": "500a4aa0e5f708809106692d90a2c277145ddb1dce3dabbf3f18c52d8ce169e5"
      } ],
      "status": "not-done",
      "category": {
        "coding": [ {
          "system": "http://snomed.info/sct",
          "code": "225287004",
          "display": "Procedures relating to positioning and support (procedure)"
        } ]
      },
      "code": {
        "coding": [ {
          "system": "http://snomed.info/sct",
          "code": "431182000"
        } ],
        "text": "Prone position"
      },
      "subject": {
        "reference": "Patient/88f1c3d8fe502d936d77a0e85e0a956c89e8d2df685d0320b8988b12607eab08"
      },
      "encounter": {
        "reference": "Encounter/876cf466be82975fad227ac0d34fc28127c5590e8927ab0e4cbc01a3a683cea9"
      },
      "_performedDateTime": {
        "extension": [ {
          "url": "http://hl7.org/fhir/StructureDefinition/data-absent-reason",
          "valueCode": "not-performed"
        } ]
      }
    },
    "request": {
      "method": "POST",
      "url": "Procedure",
      "ifNoneExist": "identifier=https://mein.krankenhaus.de/fhir/NamingSystem/procedureId|88d160555c583bc87e347a9bc10940f84dbac06cefb94e397c1347af2651c512"
    }
  }, {
    "fullUrl": "Procedure/60144ec005d9d1eb553621184d98892bbc2bb8b0d4d2455374bac4e2c84bc653",
    "resource": {
      "resourceType": "Procedure",
      "meta": {
        "profile": [ "https://www.netzwerk-universitaetsmedizin.de/fhir/StructureDefinition/respiratory-therapies" ]
      },
      "identifier": [ {
        "system": "https://mein.krankenhaus.de/fhir/NamingSystem/procedureId",
        "value": "a5927cd05cf5abb1fdbb1a857fa40541b743a9448300cbaef43c25a26fbc2192"
      } ],
      "status": "not-done",
      "category": {
        "coding": [ {
          "system": "http://snomed.info/sct",
          "code": "277132007",
          "display": "Therapeutic procedure (procedure)"
        } ]
      },
      "code": {
        "coding": [ {
          "system": "http://snomed.info/sct",
          "code": "40617009",
          "display": "Artificial respiration (procedure)"
        } ]
      },
      "subject": {
        "reference": "Patient/88f1c3d8fe502d936d77a0e85e0a956c89e8d2df685d0320b8988b12607eab08"
      },
      "encounter": {
        "reference": "Encounter/876cf466be82975fad227ac0d34fc28127c5590e8927ab0e4cbc01a3a683cea9"
      },
      "_performedDateTime": {
        "extension": [ {
          "url": "http://hl7.org/fhir/StructureDefinition/data-absent-reason",
          "valueCode": "unknown"
        } ]
      }
    },
    "request": {
      "method": "POST",
      "url": "Procedure",
      "ifNoneExist": "identifier=https://mein.krankenhaus.de/fhir/NamingSystem/procedureId|60144ec005d9d1eb553621184d98892bbc2bb8b0d4d2455374bac4e2c84bc653"
    }
  }, {
    "fullUrl": "Observation/0e4ba067af54f6a845ab47ffcb9727b83e39f119800b946893411a5505b02324",
    "resource": {
      "resourceType": "Observation",
      "meta": {
        "profile": [ "https://www.netzwerk-universitaetsmedizin.de/fhir/StructureDefinition/patient-in-icu" ]
      },
      "identifier": [ {
        "system": "https://mein.krankenhaus.de/fhir/NamingSystem/observationId",
        "value": "5338df87ffee104ab56171d876ad2bdd0fd490b5f67d63353a82f770f69d476d"
      } ],
      "status": "final",
      "category": [ {
        "coding": [ {
          "system": "http://terminology.hl7.org/CodeSystem/observation-category",
          "code": "survey",
          "display": "Survey"
        } ]
      } ],
      "code": {
        "coding": [ {
          "system": "https://www.netzwerk-universitaetsmedizin.de/fhir/CodeSystem/ecrf-parameter-codes",
          "code": "01",
          "display": "Is the patient in the intensive care unit?"
        } ]
      },
      "subject": {
        "reference": "Patient/88f1c3d8fe502d936d77a0e85e0a956c89e8d2df685d0320b8988b12607eab08"
      },
      "encounter": {
        "reference": "Encounter/876cf466be82975fad227ac0d34fc28127c5590e8927ab0e4cbc01a3a683cea9"
      },
      "_effectiveDateTime": {
        "extension": [ {
          "url": "http://hl7.org/fhir/StructureDefinition/data-absent-reason",
          "valueCode": "unknown"
        } ]
      },
      "valueCodeableConcept": {
        "coding": [ {
          "system": "http://snomed.info/sct",
          "code": "373067005"
        } ]
      }
    },
    "request": {
      "method": "POST",
      "url": "Observation",
      "ifNoneExist": "identifier=https://mein.krankenhaus.de/fhir/NamingSystem/observationId|0e4ba067af54f6a845ab47ffcb9727b83e39f119800b946893411a5505b02324"
    }
  }, {
    "fullUrl": "Condition/44e5c09b4052e97dc1ccce146b3970b918a072c4525a5d03bbd01715715c6e87",
    "resource": {
      "resourceType": "Condition",
      "meta": {
        "profile": [ "https://www.netzwerk-universitaetsmedizin.de/fhir/StructureDefinition/dependence-on-ventilator" ]
      },
      "identifier": [ {
        "system": "https://mein.krankenhaus.de/fhir/NamingSystem/conditionId",
        "value": "53915f751826eec41cb9cd86946cc0db59a0bb0dd4924223f3d7607f68f4d69b"
      } ],
      "clinicalStatus": {
        "coding": [ {
          "system": "http://terminology.hl7.org/CodeSystem/condition-clinical",
          "code": "active",
          "display": "Active"
        } ]
      },
      "verificationStatus": {
        "coding": [ {
          "system": "http://terminology.hl7.org/CodeSystem/condition-ver-status",
          "code": "refuted",
          "display": "Refuted"
        }, {
          "system": "http://snomed.info/sct",
          "code": "410594000",
          "display": "Definitely NOT present (qualifier value)"
        } ]
      },
      "category": [ {
        "coding": [ {
          "system": "http://snomed.info/sct",
          "code": "404989005",
          "display": "Ventilation status (observable entity)"
        } ]
      } ],
      "code": {
        "coding": [ {
          "system": "http://snomed.info/sct",
          "code": "444932008"
        } ]
      },
      "subject": {
        "reference": "Patient/88f1c3d8fe502d936d77a0e85e0a956c89e8d2df685d0320b8988b12607eab08"
      },
      "encounter": {
        "reference": "Encounter/876cf466be82975fad227ac0d34fc28127c5590e8927ab0e4cbc01a3a683cea9"
      },
      "_recordedDate": {
        "extension": [ {
          "url": "http://hl7.org/fhir/StructureDefinition/data-absent-reason",
          "valueCode": "unknown"
        } ]
      }
    },
    "request": {
      "method": "POST",
      "url": "Condition",
      "ifNoneExist": "identifier=https://mein.krankenhaus.de/fhir/NamingSystem/conditionId|44e5c09b4052e97dc1ccce146b3970b918a072c4525a5d03bbd01715715c6e87"
    }
  }, {
    "fullUrl": "Observation/a805004a4878866d82d4e67ccfaa74dfb0c948efae479d4e13a630fd90d68155",
    "resource": {
      "resourceType": "Observation",
      "meta": {
        "profile": [ "https://www.netzwerk-universitaetsmedizin.de/fhir/StructureDefinition/discharge-disposition" ]
      },
      "identifier": [ {
        "type": {
          "coding": [ {
            "system": "http://terminology.hl7.org/CodeSystem/v2-0203",
            "code": "OBI",
            "display": "Observation Instance Identifier"
          } ]
        },
        "system": "https://mein.krankenhaus.de/fhir/NamingSystem/observationId",
        "value": "a9598caf7d9e15a6213e1fe2df53143df1fd519460999eba01f5ef4234f523ba",
        "assigner": {
          "reference": "Organization/3a4f3433bce81181bad2d8e0b8fafccf7dc800bc06f29be73dcb38b750a48f9a"
        }
      } ],
      "status": "final",
      "category": [ {
        "coding": [ {
          "system": "http://terminology.hl7.org/CodeSystem/observation-category",
          "code": "social-history",
          "display": "Social History"
        } ]
      } ],
      "code": {
        "coding": [ {
          "system": "http://loinc.org",
          "code": "55128-3"
        } ],
        "text": "type of Discharge"
      },
      "subject": {
        "reference": "Patient/88f1c3d8fe502d936d77a0e85e0a956c89e8d2df685d0320b8988b12607eab08"
      },
      "encounter": {
        "reference": "Encounter/876cf466be82975fad227ac0d34fc28127c5590e8927ab0e4cbc01a3a683cea9"
      },
      "_effectiveDateTime": {
        "extension": [ {
          "url": "http://hl7.org/fhir/StructureDefinition/data-absent-reason",
          "valueCode": "unknown"
        } ]
      },
      "valueCodeableConcept": {
        "coding": [ {
          "system": "http://snomed.info/sct",
          "code": "306237005"
        } ]
      }
    },
    "request": {
      "method": "POST",
      "url": "Observation",
      "ifNoneExist": "identifier=https://mein.krankenhaus.de/fhir/NamingSystem/observationId|a805004a4878866d82d4e67ccfaa74dfb0c948efae479d4e13a630fd90d68155"
    }
  }, {
    "fullUrl": "Observation/765c5471fafbedda4bfe81c96ca87fff1e8e302ed4c24c89b8093ef10dba6dd0",
    "resource": {
      "resourceType": "Observation",
      "meta": {
        "profile": [ "https://www.netzwerk-universitaetsmedizin.de/fhir/StructureDefinition/sars-cov-2-rt-pcr" ]
      },
      "identifier": [ {
        "type": {
          "coding": [ {
            "system": "http://terminology.hl7.org/CodeSystem/v2-0203",
            "code": "OBI",
            "display": "Observation Instance Identifier"
          } ]
        },
        "system": "https://mein.krankenhaus.de/fhir/NamingSystem/observationId",
        "value": "3c59d129a32f130277bbafd928b4ae959d370617b1a0dfd1540454cbdd815613",
        "assigner": {
          "reference": "Organization/3a4f3433bce81181bad2d8e0b8fafccf7dc800bc06f29be73dcb38b750a48f9a"
        }
      } ],
      "status": "final",
      "category": [ {
        "coding": [ {
          "system": "http://terminology.hl7.org/CodeSystem/observation-category",
          "code": "laboratory",
          "display": "Laboratory"
        }, {
          "system": "http://loinc.org",
          "code": "26436-6",
          "display": "Laboratory studies (set)"
        } ]
      } ],
      "code": {
        "coding": [ {
          "system": "http://loinc.org",
          "code": "94500-6"
        } ]
      },
      "subject": {
        "reference": "Patient/88f1c3d8fe502d936d77a0e85e0a956c89e8d2df685d0320b8988b12607eab08"
      },
      "encounter": {
        "reference": "Encounter/876cf466be82975fad227ac0d34fc28127c5590e8927ab0e4cbc01a3a683cea9"
      },
      "_effectiveDateTime": {
        "extension": [ {
          "url": "http://hl7.org/fhir/StructureDefinition/data-absent-reason",
          "valueCode": "unknown"
        } ]
      },
      "valueCodeableConcept": {
        "coding": [ {
          "system": "http://snomed.info/sct",
          "code": "260373001"
        } ]
      }
    },
    "request": {
      "method": "POST",
      "url": "Observation",
      "ifNoneExist": "identifier=https://mein.krankenhaus.de/fhir/NamingSystem/observationId|765c5471fafbedda4bfe81c96ca87fff1e8e302ed4c24c89b8093ef10dba6dd0"
    }
  }, {
    "fullUrl": "Observation/6b414a4a9bdcc4777a71c81c14af215d56944c730ae074f2258bfe4f81430dbc",
    "resource": {
      "resourceType": "Observation",
      "meta": {
        "profile": [ "https://www.medizininformatik-initiative.de/fhir/core/modul-labor/StructureDefinition/ObservationLab" ]
      },
      "identifier": [ {
        "type": {
          "coding": [ {
            "system": "http://terminology.hl7.org/CodeSystem/v2-0203",
            "code": "OBI",
            "display": "Observation Instance Identifier"
          } ]
        },
        "system": "https://mein.krankenhaus.de/fhir/NamingSystem/observationId",
        "value": "7529b676254fcff97d03ff1ded9529599dc2e26fe47278bac9173a4053694d34",
        "assigner": {
          "reference": "Organization/3a4f3433bce81181bad2d8e0b8fafccf7dc800bc06f29be73dcb38b750a48f9a"
        }
      } ],
      "status": "final",
      "category": [ {
        "coding": [ {
          "system": "http://terminology.hl7.org/CodeSystem/observation-category",
          "code": "laboratory",
          "display": "Laboratory"
        }, {
          "system": "http://loinc.org",
          "code": "26436-6"
        } ]
      } ],
      "code": {
        "coding": [ {
          "system": "http://loinc.org",
          "code": "48421-2",
          "display": "c-reactive-protein-in-capillary-blood"
        } ],
        "text": "crp"
      },
      "subject": {
        "reference": "Patient/88f1c3d8fe502d936d77a0e85e0a956c89e8d2df685d0320b8988b12607eab08"
      },
      "encounter": {
        "reference": "Encounter/876cf466be82975fad227ac0d34fc28127c5590e8927ab0e4cbc01a3a683cea9"
      },
      "effectiveDateTime": "2020-05-08T17:04:00+00:00",
      "valueQuantity": {
        "value": 82.884673299764,
        "unit": "mg/L",
        "system": "http://unitsofmeasure.org",
        "code": "mg/L"
      }
    },
    "request": {
      "method": "POST",
      "url": "Observation",
      "ifNoneExist": "identifier=https://mein.krankenhaus.de/fhir/NamingSystem/observationId|6b414a4a9bdcc4777a71c81c14af215d56944c730ae074f2258bfe4f81430dbc"
    }
  }, {
    "fullUrl": "Observation/caaf6b4b82e83feb74337b8324aa929b2a8837cca2a1682e19d41efb08b14ef2",
    "resource": {
      "resourceType": "Observation",
      "meta": {
        "profile": [ "https://www.medizininformatik-initiative.de/fhir/core/modul-labor/StructureDefinition/ObservationLab" ]
      },
      "identifier": [ {
        "type": {
          "coding": [ {
            "system": "http://terminology.hl7.org/CodeSystem/v2-0203",
            "code": "OBI",
            "display": "Observation Instance Identifier"
          } ]
        },
        "system": "https://mein.krankenhaus.de/fhir/NamingSystem/observationId",
        "value": "f243c903ab8653f9d4786fe11044ce892a71faf271444076df0c2d2598b7a166",
        "assigner": {
          "reference": "Organization/3a4f3433bce81181bad2d8e0b8fafccf7dc800bc06f29be73dcb38b750a48f9a"
        }
      } ],
      "status": "final",
      "category": [ {
        "coding": [ {
          "system": "http://terminology.hl7.org/CodeSystem/observation-category",
          "code": "laboratory",
          "display": "Laboratory"
        }, {
          "system": "http://loinc.org",
          "code": "26436-6"
        } ]
      } ],
      "code": {
        "coding": [ {
          "system": "http://loinc.org",
          "code": "20567-4",
          "display": "ferritin-in-serum-or-plasma-by-immunoassay"
        } ],
        "text": "ferritin"
      },
      "subject": {
        "reference": "Patient/88f1c3d8fe502d936d77a0e85e0a956c89e8d2df685d0320b8988b12607eab08"
      },
      "encounter": {
        "reference": "Encounter/876cf466be82975fad227ac0d34fc28127c5590e8927ab0e4cbc01a3a683cea9"
      },
      "effectiveDateTime": "2020-05-08T17:04:00+00:00",
      "valueQuantity": {
        "value": 33.780027250770736,
        "unit": "ng/mL",
        "system": "http://unitsofmeasure.org",
        "code": "ng/mL"
      }
    },
    "request": {
      "method": "POST",
      "url": "Observation",
      "ifNoneExist": "identifier=https://mein.krankenhaus.de/fhir/NamingSystem/observationId|caaf6b4b82e83feb74337b8324aa929b2a8837cca2a1682e19d41efb08b14ef2"
    }
  }, {
    "fullUrl": "Observation/537955ce7fa55b80944d50eb864ee2ffa1a2ff2a3e54fd50b46cd7b586003bcd",
    "resource": {
      "resourceType": "Observation",
      "meta": {
        "profile": [ "https://www.medizininformatik-initiative.de/fhir/core/modul-labor/StructureDefinition/ObservationLab" ]
      },
      "identifier": [ {
        "type": {
          "coding": [ {
            "system": "http://terminology.hl7.org/CodeSystem/v2-0203",
            "code": "OBI",
            "display": "Observation Instance Identifier"
          } ]
        },
        "system": "https://mein.krankenhaus.de/fhir/NamingSystem/observationId",
        "value": "4501bc76eb3ea10a19354b5d9926959d63b51d1f0e30535c551d9196c08e96b6",
        "assigner": {
          "reference": "Organization/3a4f3433bce81181bad2d8e0b8fafccf7dc800bc06f29be73dcb38b750a48f9a"
        }
      } ],
      "status": "final",
      "category": [ {
        "coding": [ {
          "system": "http://terminology.hl7.org/CodeSystem/observation-category",
          "code": "laboratory",
          "display": "Laboratory"
        }, {
          "system": "http://loinc.org",
          "code": "26436-6"
        } ]
      } ],
      "code": {
        "coding": [ {
          "system": "http://loinc.org",
          "code": "14631-6",
          "display": "bilirubin.total-in-serum-or-plasma"
        } ],
        "text": "bilirubin"
      },
      "subject": {
        "reference": "Patient/88f1c3d8fe502d936d77a0e85e0a956c89e8d2df685d0320b8988b12607eab08"
      },
      "encounter": {
        "reference": "Encounter/876cf466be82975fad227ac0d34fc28127c5590e8927ab0e4cbc01a3a683cea9"
      },
      "effectiveDateTime": "2020-05-08T17:04:00+00:00",
      "valueQuantity": {
        "value": 81.58753960034059,
        "unit": "umol/L",
        "system": "http://unitsofmeasure.org",
        "code": "umol/L"
      }
    },
    "request": {
      "method": "POST",
      "url": "Observation",
      "ifNoneExist": "identifier=https://mein.krankenhaus.de/fhir/NamingSystem/observationId|537955ce7fa55b80944d50eb864ee2ffa1a2ff2a3e54fd50b46cd7b586003bcd"
    }
  }, {
    "fullUrl": "Observation/4f15923f370cd9381b898d9c3121994f8d8ada6adf5276c72e6dafe6e0a93dca",
    "resource": {
      "resourceType": "Observation",
      "meta": {
        "profile": [ "https://www.medizininformatik-initiative.de/fhir/core/modul-labor/StructureDefinition/ObservationLab" ]
      },
      "identifier": [ {
        "type": {
          "coding": [ {
            "system": "http://terminology.hl7.org/CodeSystem/v2-0203",
            "code": "OBI",
            "display": "Observation Instance Identifier"
          } ]
        },
        "system": "https://mein.krankenhaus.de/fhir/NamingSystem/observationId",
        "value": "aa3c14bfbc9fdb4c7c2958485e0d709c989d37fb437bc798ef7a28f61a8a95ad",
        "assigner": {
          "reference": "Organization/3a4f3433bce81181bad2d8e0b8fafccf7dc800bc06f29be73dcb38b750a48f9a"
        }
      } ],
      "status": "final",
      "category": [ {
        "coding": [ {
          "system": "http://terminology.hl7.org/CodeSystem/observation-category",
          "code": "laboratory",
          "display": "Laboratory"
        }, {
          "system": "http://loinc.org",
          "code": "26436-6"
        } ]
      } ],
      "code": {
        "coding": [ {
          "system": "http://loinc.org",
          "code": "71427-9",
          "display": "fibrin-d-dimer-feu-in-blood-by-immunoassay"
        } ],
        "text": "ddimer"
      },
      "subject": {
        "reference": "Patient/88f1c3d8fe502d936d77a0e85e0a956c89e8d2df685d0320b8988b12607eab08"
      },
      "encounter": {
        "reference": "Encounter/876cf466be82975fad227ac0d34fc28127c5590e8927ab0e4cbc01a3a683cea9"
      },
      "effectiveDateTime": "2020-05-08T17:04:00+00:00",
      "valueQuantity": {
        "value": 59.98450758291739,
        "unit": "ng/mL{FEU}",
        "system": "http://unitsofmeasure.org",
        "code": "ng/mL{FEU}"
      }
    },
    "request": {
      "method": "POST",
      "url": "Observation",
      "ifNoneExist": "identifier=https://mein.krankenhaus.de/fhir/NamingSystem/observationId|4f15923f370cd9381b898d9c3121994f8d8ada6adf5276c72e6dafe6e0a93dca"
    }
  }, {
    "fullUrl": "Observation/9e708979cb8f9e283d7fad00bf5d2ef68d1aed3eb9164e307150478ae6bc73d3",
    "resource": {
      "resourceType": "Observation",
      "meta": {
        "profile": [ "https://www.medizininformatik-initiative.de/fhir/core/modul-labor/StructureDefinition/ObservationLab" ]
      },
      "identifier": [ {
        "type": {
          "coding": [ {
            "system": "http://terminology.hl7.org/CodeSystem/v2-0203",
            "code": "OBI",
            "display": "Observation Instance Identifier"
          } ]
        },
        "system": "https://mein.krankenhaus.de/fhir/NamingSystem/observationId",
        "value": "a1505003ea2f4e8f6bffdf0e030034526ff74de7c062e84d264f9d8243d05ca5",
        "assigner": {
          "reference": "Organization/3a4f3433bce81181bad2d8e0b8fafccf7dc800bc06f29be73dcb38b750a48f9a"
        }
      } ],
      "status": "final",
      "category": [ {
        "coding": [ {
          "system": "http://terminology.hl7.org/CodeSystem/observation-category",
          "code": "laboratory",
          "display": "Laboratory"
        }, {
          "system": "http://loinc.org",
          "code": "26436-6"
        } ]
      } ],
      "code": {
        "coding": [ {
          "system": "http://loinc.org",
          "code": "2325-9",
          "display": "gamma-glutamyl-transferase-aspartate-aminotransferase-in-serum-or-plasma"
        } ],
        "text": "gammagt"
      },
      "subject": {
        "reference": "Patient/88f1c3d8fe502d936d77a0e85e0a956c89e8d2df685d0320b8988b12607eab08"
      },
      "encounter": {
        "reference": "Encounter/876cf466be82975fad227ac0d34fc28127c5590e8927ab0e4cbc01a3a683cea9"
      },
      "effectiveDateTime": "2020-05-08T17:04:00+00:00",
      "valueQuantity": {
        "value": 66.36648414333774,
        "unit": "U/L",
        "system": "http://unitsofmeasure.org",
        "code": "U/L"
      }
    },
    "request": {
      "method": "POST",
      "url": "Observation",
      "ifNoneExist": "identifier=https://mein.krankenhaus.de/fhir/NamingSystem/observationId|9e708979cb8f9e283d7fad00bf5d2ef68d1aed3eb9164e307150478ae6bc73d3"
    }
  }, {
    "fullUrl": "Observation/cbe993f056220055f79179e1933affcb5dd6cceede0baeb65ff9df684535629b",
    "resource": {
      "resourceType": "Observation",
      "meta": {
        "profile": [ "https://www.medizininformatik-initiative.de/fhir/core/modul-labor/StructureDefinition/ObservationLab" ]
      },
      "identifier": [ {
        "type": {
          "coding": [ {
            "system": "http://terminology.hl7.org/CodeSystem/v2-0203",
            "code": "OBI",
            "display": "Observation Instance Identifier"
          } ]
        },
        "system": "https://mein.krankenhaus.de/fhir/NamingSystem/observationId",
        "value": "82d54c793b31ef926494ccc5be45ff29e87348d4a3150b1417f2101d7787f08f",
        "assigner": {
          "reference": "Organization/3a4f3433bce81181bad2d8e0b8fafccf7dc800bc06f29be73dcb38b750a48f9a"
        }
      } ],
      "status": "final",
      "category": [ {
        "coding": [ {
          "system": "http://terminology.hl7.org/CodeSystem/observation-category",
          "code": "laboratory",
          "display": "Laboratory"
        }, {
          "system": "http://loinc.org",
          "code": "26436-6"
        } ]
      } ],
      "code": {
        "coding": [ {
          "system": "http://loinc.org",
          "code": "60017-1",
          "display": "lactate-dehydrogenase-in-body-fluid-by-pyruvate-to-lactate-reaction"
        } ],
        "text": "ldh"
      },
      "subject": {
        "reference": "Patient/88f1c3d8fe502d936d77a0e85e0a956c89e8d2df685d0320b8988b12607eab08"
      },
      "encounter": {
        "reference": "Encounter/876cf466be82975fad227ac0d34fc28127c5590e8927ab0e4cbc01a3a683cea9"
      },
      "effectiveDateTime": "2020-05-08T17:04:00+00:00",
      "valueQuantity": {
        "value": 1.92445689545937,
        "unit": "U/L",
        "system": "http://unitsofmeasure.org",
        "code": "U/L"
      }
    },
    "request": {
      "method": "POST",
      "url": "Observation",
      "ifNoneExist": "identifier=https://mein.krankenhaus.de/fhir/NamingSystem/observationId|cbe993f056220055f79179e1933affcb5dd6cceede0baeb65ff9df684535629b"
    }
  }, {
    "fullUrl": "Observation/26d87b6e38e15f53a250fa7dee38322ecd15966a69e02e2997ef68aaac17e864",
    "resource": {
      "resourceType": "Observation",
      "meta": {
        "profile": [ "https://www.medizininformatik-initiative.de/fhir/core/modul-labor/StructureDefinition/ObservationLab" ]
      },
      "identifier": [ {
        "type": {
          "coding": [ {
            "system": "http://terminology.hl7.org/CodeSystem/v2-0203",
            "code": "OBI",
            "display": "Observation Instance Identifier"
          } ]
        },
        "system": "https://mein.krankenhaus.de/fhir/NamingSystem/observationId",
        "value": "fb3408356817db54d1f58187228cb79b705e5ef6de1d997803fa6ad401fae259",
        "assigner": {
          "reference": "Organization/3a4f3433bce81181bad2d8e0b8fafccf7dc800bc06f29be73dcb38b750a48f9a"
        }
      } ],
      "status": "final",
      "category": [ {
        "coding": [ {
          "system": "http://terminology.hl7.org/CodeSystem/observation-category",
          "code": "laboratory",
          "display": "Laboratory"
        }, {
          "system": "http://loinc.org",
          "code": "26436-6"
        } ]
      } ],
      "code": {
        "coding": [ {
          "system": "http://loinc.org",
          "code": "48425-3",
          "display": "troponin-t.cardiac-in-blood"
        } ],
        "text": "kardiale_troponine"
      },
      "subject": {
        "reference": "Patient/88f1c3d8fe502d936d77a0e85e0a956c89e8d2df685d0320b8988b12607eab08"
      },
      "encounter": {
        "reference": "Encounter/876cf466be82975fad227ac0d34fc28127c5590e8927ab0e4cbc01a3a683cea9"
      },
      "effectiveDateTime": "2020-05-08T17:04:00+00:00",
      "valueQuantity": {
        "value": 64.21840501981052,
        "unit": "ng/L",
        "system": "http://unitsofmeasure.org",
        "code": "ng/L"
      }
    },
    "request": {
      "method": "POST",
      "url": "Observation",
      "ifNoneExist": "identifier=https://mein.krankenhaus.de/fhir/NamingSystem/observationId|26d87b6e38e15f53a250fa7dee38322ecd15966a69e02e2997ef68aaac17e864"
    }
  }, {
    "fullUrl": "Observation/90b772dbd4ee03bf65855d4ac0b660e6eac89315e5db0379f2d9bdcfe20de428",
    "resource": {
      "resourceType": "Observation",
      "meta": {
        "profile": [ "https://www.medizininformatik-initiative.de/fhir/core/modul-labor/StructureDefinition/ObservationLab" ]
      },
      "identifier": [ {
        "type": {
          "coding": [ {
            "system": "http://terminology.hl7.org/CodeSystem/v2-0203",
            "code": "OBI",
            "display": "Observation Instance Identifier"
          } ]
        },
        "system": "https://mein.krankenhaus.de/fhir/NamingSystem/observationId",
        "value": "faa178b69be8cc40918c42590fce1610e25005d0d0102ab01f8f4d751ad9aea1",
        "assigner": {
          "reference": "Organization/3a4f3433bce81181bad2d8e0b8fafccf7dc800bc06f29be73dcb38b750a48f9a"
        }
      } ],
      "status": "final",
      "category": [ {
        "coding": [ {
          "system": "http://terminology.hl7.org/CodeSystem/observation-category",
          "code": "laboratory",
          "display": "Laboratory"
        }, {
          "system": "http://loinc.org",
          "code": "26436-6"
        } ]
      } ],
      "code": {
        "coding": [ {
          "system": "http://loinc.org",
          "code": "30352-9",
          "display": "hemoglobin-in-capillary-blood"
        } ],
        "text": "hamoglobin"
      },
      "subject": {
        "reference": "Patient/88f1c3d8fe502d936d77a0e85e0a956c89e8d2df685d0320b8988b12607eab08"
      },
      "encounter": {
        "reference": "Encounter/876cf466be82975fad227ac0d34fc28127c5590e8927ab0e4cbc01a3a683cea9"
      },
      "effectiveDateTime": "2020-05-08T17:04:00+00:00",
      "valueQuantity": {
        "value": 12.313310809190824,
        "unit": "g/dL",
        "system": "http://unitsofmeasure.org",
        "code": "g/dL"
      }
    },
    "request": {
      "method": "POST",
      "url": "Observation",
      "ifNoneExist": "identifier=https://mein.krankenhaus.de/fhir/NamingSystem/observationId|90b772dbd4ee03bf65855d4ac0b660e6eac89315e5db0379f2d9bdcfe20de428"
    }
  }, {
    "fullUrl": "Observation/bebdc554cdb15b5021a676c657788bdac1e6ccc4ab44d2170a90323679499f66",
    "resource": {
      "resourceType": "Observation",
      "meta": {
        "profile": [ "https://www.medizininformatik-initiative.de/fhir/core/modul-labor/StructureDefinition/ObservationLab" ]
      },
      "identifier": [ {
        "type": {
          "coding": [ {
            "system": "http://terminology.hl7.org/CodeSystem/v2-0203",
            "code": "OBI",
            "display": "Observation Instance Identifier"
          } ]
        },
        "system": "https://mein.krankenhaus.de/fhir/NamingSystem/observationId",
        "value": "abebfbf53f29c089eed04be11c648adb5b8fc61fc5243114daed4c01aa64d737",
        "assigner": {
          "reference": "Organization/3a4f3433bce81181bad2d8e0b8fafccf7dc800bc06f29be73dcb38b750a48f9a"
        }
      } ],
      "status": "final",
      "category": [ {
        "coding": [ {
          "system": "http://terminology.hl7.org/CodeSystem/observation-category",
          "code": "laboratory",
          "display": "Laboratory"
        }, {
          "system": "http://loinc.org",
          "code": "26436-6"
        } ]
      } ],
      "code": {
        "coding": [ {
          "system": "http://loinc.org",
          "code": "12190-5",
          "display": "creatinine-in-body-fluid"
        } ],
        "text": "kreatinin"
      },
      "subject": {
        "reference": "Patient/88f1c3d8fe502d936d77a0e85e0a956c89e8d2df685d0320b8988b12607eab08"
      },
      "encounter": {
        "reference": "Encounter/876cf466be82975fad227ac0d34fc28127c5590e8927ab0e4cbc01a3a683cea9"
      },
      "effectiveDateTime": "2020-05-08T17:04:00+00:00",
      "valueQuantity": {
        "value": 61.36903912921271,
        "unit": "mg/L",
        "system": "http://unitsofmeasure.org",
        "code": "mg/L"
      }
    },
    "request": {
      "method": "POST",
      "url": "Observation",
      "ifNoneExist": "identifier=https://mein.krankenhaus.de/fhir/NamingSystem/observationId|bebdc554cdb15b5021a676c657788bdac1e6ccc4ab44d2170a90323679499f66"
    }
  }, {
    "fullUrl": "Observation/c2058684640afbd2af353023737dbf8d91f94c706cfa804fcafdf1a23f99a765",
    "resource": {
      "resourceType": "Observation",
      "meta": {
        "profile": [ "https://www.medizininformatik-initiative.de/fhir/core/modul-labor/StructureDefinition/ObservationLab" ]
      },
      "identifier": [ {
        "type": {
          "coding": [ {
            "system": "http://terminology.hl7.org/CodeSystem/v2-0203",
            "code": "OBI",
            "display": "Observation Instance Identifier"
          } ]
        },
        "system": "https://mein.krankenhaus.de/fhir/NamingSystem/observationId",
        "value": "5b43e800232facf8341ab5f2c0bd057d17c0cc8f8ff6c2cf09d5bb820923857e",
        "assigner": {
          "reference": "Organization/3a4f3433bce81181bad2d8e0b8fafccf7dc800bc06f29be73dcb38b750a48f9a"
        }
      } ],
      "status": "final",
      "category": [ {
        "coding": [ {
          "system": "http://terminology.hl7.org/CodeSystem/observation-category",
          "code": "laboratory",
          "display": "Laboratory"
        }, {
          "system": "http://loinc.org",
          "code": "26436-6"
        } ]
      } ],
      "code": {
        "coding": [ {
          "system": "http://loinc.org",
          "code": "27941-4",
          "display": "lactate-in-cerebral-spinal-fluid"
        } ],
        "text": "laktat"
      },
      "subject": {
        "reference": "Patient/88f1c3d8fe502d936d77a0e85e0a956c89e8d2df685d0320b8988b12607eab08"
      },
      "encounter": {
        "reference": "Encounter/876cf466be82975fad227ac0d34fc28127c5590e8927ab0e4cbc01a3a683cea9"
      },
      "effectiveDateTime": "2020-05-08T17:04:00+00:00",
      "valueQuantity": {
        "value": 59.70306661988264,
        "unit": "mg/dL",
        "system": "http://unitsofmeasure.org",
        "code": "mg/dL"
      }
    },
    "request": {
      "method": "POST",
      "url": "Observation",
      "ifNoneExist": "identifier=https://mein.krankenhaus.de/fhir/NamingSystem/observationId|c2058684640afbd2af353023737dbf8d91f94c706cfa804fcafdf1a23f99a765"
    }
  }, {
    "fullUrl": "Observation/d9ff87e716a2384051ea36adc7dd089a446cfd165393dfd169f0e7a54349d5fd",
    "resource": {
      "resourceType": "Observation",
      "meta": {
        "profile": [ "https://www.medizininformatik-initiative.de/fhir/core/modul-labor/StructureDefinition/ObservationLab" ]
      },
      "identifier": [ {
        "type": {
          "coding": [ {
            "system": "http://terminology.hl7.org/CodeSystem/v2-0203",
            "code": "OBI",
            "display": "Observation Instance Identifier"
          } ]
        },
        "system": "https://mein.krankenhaus.de/fhir/NamingSystem/observationId",
        "value": "66e8bc6d41fa53052608e6084bf94cc90ddeddc3a0ecd982bb8bfd6382edf33e",
        "assigner": {
          "reference": "Organization/3a4f3433bce81181bad2d8e0b8fafccf7dc800bc06f29be73dcb38b750a48f9a"
        }
      } ],
      "status": "final",
      "category": [ {
        "coding": [ {
          "system": "http://terminology.hl7.org/CodeSystem/observation-category",
          "code": "laboratory",
          "display": "Laboratory"
        }, {
          "system": "http://loinc.org",
          "code": "26436-6"
        } ]
      } ],
      "code": {
        "coding": [ {
          "system": "http://loinc.org",
          "code": "6690-2",
          "display": "leukocytes-in-blood-by-automated-count"
        } ],
        "text": "leukozyten_absolut"
      },
      "subject": {
        "reference": "Patient/88f1c3d8fe502d936d77a0e85e0a956c89e8d2df685d0320b8988b12607eab08"
      },
      "encounter": {
        "reference": "Encounter/876cf466be82975fad227ac0d34fc28127c5590e8927ab0e4cbc01a3a683cea9"
      },
      "effectiveDateTime": "2020-05-08T17:04:00+00:00",
      "valueQuantity": {
        "value": 50.000203959580624,
        "unit": "10*3/uL",
        "system": "http://unitsofmeasure.org",
        "code": "10*3/uL"
      }
    },
    "request": {
      "method": "POST",
      "url": "Observation",
      "ifNoneExist": "identifier=https://mein.krankenhaus.de/fhir/NamingSystem/observationId|d9ff87e716a2384051ea36adc7dd089a446cfd165393dfd169f0e7a54349d5fd"
    }
  }, {
    "fullUrl": "Observation/6e2fb61f7adeb76827e9fabe5f897d1087d9c4dc5a60234d6159cd48b2dbca05",
    "resource": {
      "resourceType": "Observation",
      "meta": {
        "profile": [ "https://www.medizininformatik-initiative.de/fhir/core/modul-labor/StructureDefinition/ObservationLab" ]
      },
      "identifier": [ {
        "type": {
          "coding": [ {
            "system": "http://terminology.hl7.org/CodeSystem/v2-0203",
            "code": "OBI",
            "display": "Observation Instance Identifier"
          } ]
        },
        "system": "https://mein.krankenhaus.de/fhir/NamingSystem/observationId",
        "value": "1451c24db9221cb376add715d2a3c7909cb32996bd2bc5a47bcc161d6c3cf73c",
        "assigner": {
          "reference": "Organization/3a4f3433bce81181bad2d8e0b8fafccf7dc800bc06f29be73dcb38b750a48f9a"
        }
      } ],
      "status": "final",
      "category": [ {
        "coding": [ {
          "system": "http://terminology.hl7.org/CodeSystem/observation-category",
          "code": "laboratory",
          "display": "Laboratory"
        }, {
          "system": "http://loinc.org",
          "code": "26436-6"
        } ]
      } ],
      "code": {
        "coding": [ {
          "system": "http://loinc.org",
          "code": "26474-7",
          "display": "lymphocytes-in-blood"
        } ],
        "text": "lymphozyten_absolut"
      },
      "subject": {
        "reference": "Patient/88f1c3d8fe502d936d77a0e85e0a956c89e8d2df685d0320b8988b12607eab08"
      },
      "encounter": {
        "reference": "Encounter/876cf466be82975fad227ac0d34fc28127c5590e8927ab0e4cbc01a3a683cea9"
      },
      "effectiveDateTime": "2020-05-08T17:04:00+00:00",
      "valueQuantity": {
        "value": 88.23815793141746,
        "unit": "10*3/uL",
        "system": "http://unitsofmeasure.org",
        "code": "10*3/uL"
      }
    },
    "request": {
      "method": "POST",
      "url": "Observation",
      "ifNoneExist": "identifier=https://mein.krankenhaus.de/fhir/NamingSystem/observationId|6e2fb61f7adeb76827e9fabe5f897d1087d9c4dc5a60234d6159cd48b2dbca05"
    }
  }, {
    "fullUrl": "Observation/bfaebe0b839fa269ba17ea329fc701db0baf3bf31b1d20b894325bb6ee9726ec",
    "resource": {
      "resourceType": "Observation",
      "meta": {
        "profile": [ "https://www.medizininformatik-initiative.de/fhir/core/modul-labor/StructureDefinition/ObservationLab" ]
      },
      "identifier": [ {
        "type": {
          "coding": [ {
            "system": "http://terminology.hl7.org/CodeSystem/v2-0203",
            "code": "OBI",
            "display": "Observation Instance Identifier"
          } ]
        },
        "system": "https://mein.krankenhaus.de/fhir/NamingSystem/observationId",
        "value": "76e859c3d1732b2b24e72738f6feda619d72c879060045a69b11b2883430be90",
        "assigner": {
          "reference": "Organization/3a4f3433bce81181bad2d8e0b8fafccf7dc800bc06f29be73dcb38b750a48f9a"
        }
      } ],
      "status": "final",
      "category": [ {
        "coding": [ {
          "system": "http://terminology.hl7.org/CodeSystem/observation-category",
          "code": "laboratory",
          "display": "Laboratory"
        }, {
          "system": "http://loinc.org",
          "code": "26436-6"
        } ]
      } ],
      "code": {
        "coding": [ {
          "system": "http://loinc.org",
          "code": "753-4",
          "display": "neutrophils-in-blood-by-manual-count"
        } ],
        "text": "neutrophile_absolut"
      },
      "subject": {
        "reference": "Patient/88f1c3d8fe502d936d77a0e85e0a956c89e8d2df685d0320b8988b12607eab08"
      },
      "encounter": {
        "reference": "Encounter/876cf466be82975fad227ac0d34fc28127c5590e8927ab0e4cbc01a3a683cea9"
      },
      "effectiveDateTime": "2020-05-08T17:04:00+00:00",
      "valueQuantity": {
        "value": 72.43355589771224,
        "unit": "10*3/uL",
        "system": "http://unitsofmeasure.org",
        "code": "10*3/uL"
      }
    },
    "request": {
      "method": "POST",
      "url": "Observation",
      "ifNoneExist": "identifier=https://mein.krankenhaus.de/fhir/NamingSystem/observationId|bfaebe0b839fa269ba17ea329fc701db0baf3bf31b1d20b894325bb6ee9726ec"
    }
  }, {
    "fullUrl": "Observation/921a41fd7bfd0d2ccf50c6a3bc26f2712fbd64eb75ee839b6bc7826bd1fb6b98",
    "resource": {
      "resourceType": "Observation",
      "meta": {
        "profile": [ "https://www.medizininformatik-initiative.de/fhir/core/modul-labor/StructureDefinition/ObservationLab" ]
      },
      "identifier": [ {
        "type": {
          "coding": [ {
            "system": "http://terminology.hl7.org/CodeSystem/v2-0203",
            "code": "OBI",
            "display": "Observation Instance Identifier"
          } ]
        },
        "system": "https://mein.krankenhaus.de/fhir/NamingSystem/observationId",
        "value": "4a5be5704756c91b2337bb6191c9baacb65e2ae8e3dd9e7662066cd092f97e20",
        "assigner": {
          "reference": "Organization/3a4f3433bce81181bad2d8e0b8fafccf7dc800bc06f29be73dcb38b750a48f9a"
        }
      } ],
      "status": "final",
      "category": [ {
        "coding": [ {
          "system": "http://terminology.hl7.org/CodeSystem/observation-category",
          "code": "laboratory",
          "display": "Laboratory"
        }, {
          "system": "http://loinc.org",
          "code": "26436-6"
        } ]
      } ],
      "code": {
        "coding": [ {
          "system": "http://loinc.org",
          "code": "3173-2",
          "display": "aptt-in-blood-by-coagulation-assay"
        } ],
        "text": "ptt"
      },
      "subject": {
        "reference": "Patient/88f1c3d8fe502d936d77a0e85e0a956c89e8d2df685d0320b8988b12607eab08"
      },
      "encounter": {
        "reference": "Encounter/876cf466be82975fad227ac0d34fc28127c5590e8927ab0e4cbc01a3a683cea9"
      },
      "effectiveDateTime": "2020-05-08T17:04:00+00:00",
      "valueQuantity": {
        "value": 33.01714823653549,
        "unit": "s",
        "system": "http://unitsofmeasure.org",
        "code": "s"
      }
    },
    "request": {
      "method": "POST",
      "url": "Observation",
      "ifNoneExist": "identifier=https://mein.krankenhaus.de/fhir/NamingSystem/observationId|921a41fd7bfd0d2ccf50c6a3bc26f2712fbd64eb75ee839b6bc7826bd1fb6b98"
    }
  }, {
    "fullUrl": "Observation/12c0fc81a443f1c747c200994cdd46cd6d890e870db588c50d2206fc4c4e0eae",
    "resource": {
      "resourceType": "Observation",
      "meta": {
        "profile": [ "https://www.medizininformatik-initiative.de/fhir/core/modul-labor/StructureDefinition/ObservationLab" ]
      },
      "identifier": [ {
        "type": {
          "coding": [ {
            "system": "http://terminology.hl7.org/CodeSystem/v2-0203",
            "code": "OBI",
            "display": "Observation Instance Identifier"
          } ]
        },
        "system": "https://mein.krankenhaus.de/fhir/NamingSystem/observationId",
        "value": "f484a0f566a1e7ea43934db2a5398c4763e85dfc02d7306ab262b848c542e721",
        "assigner": {
          "reference": "Organization/3a4f3433bce81181bad2d8e0b8fafccf7dc800bc06f29be73dcb38b750a48f9a"
        }
      } ],
      "status": "final",
      "category": [ {
        "coding": [ {
          "system": "http://terminology.hl7.org/CodeSystem/observation-category",
          "code": "laboratory",
          "display": "Laboratory"
        }, {
          "system": "http://loinc.org",
          "code": "26436-6"
        } ]
      } ],
      "code": {
        "coding": [ {
          "system": "http://loinc.org",
          "code": "74775-8",
          "display": "platelets-in-platelet-rich-plasma-by-automated-count"
        } ],
        "text": "thrombozyten_absolut"
      },
      "subject": {
        "reference": "Patient/88f1c3d8fe502d936d77a0e85e0a956c89e8d2df685d0320b8988b12607eab08"
      },
      "encounter": {
        "reference": "Encounter/876cf466be82975fad227ac0d34fc28127c5590e8927ab0e4cbc01a3a683cea9"
      },
      "effectiveDateTime": "2020-05-08T17:04:00+00:00",
      "valueQuantity": {
        "value": 32.07167204690248,
        "unit": "10*3/uL",
        "system": "http://unitsofmeasure.org",
        "code": "10*3/uL"
      }
    },
    "request": {
      "method": "POST",
      "url": "Observation",
      "ifNoneExist": "identifier=https://mein.krankenhaus.de/fhir/NamingSystem/observationId|12c0fc81a443f1c747c200994cdd46cd6d890e870db588c50d2206fc4c4e0eae"
    }
  }, {
    "fullUrl": "Observation/6e1e25d305a1176fca7f2a1cf50a374050f59a9729b863042e446b150fac5879",
    "resource": {
      "resourceType": "Observation",
      "meta": {
        "profile": [ "https://www.medizininformatik-initiative.de/fhir/core/modul-labor/StructureDefinition/ObservationLab" ]
      },
      "identifier": [ {
        "type": {
          "coding": [ {
            "system": "http://terminology.hl7.org/CodeSystem/v2-0203",
            "code": "OBI",
            "display": "Observation Instance Identifier"
          } ]
        },
        "system": "https://mein.krankenhaus.de/fhir/NamingSystem/observationId",
        "value": "0ebd5cd07721edac9d169c189476f06075adb9f5543c3fd96d41972c5e6b861b",
        "assigner": {
          "reference": "Organization/3a4f3433bce81181bad2d8e0b8fafccf7dc800bc06f29be73dcb38b750a48f9a"
        }
      } ],
      "status": "final",
      "category": [ {
        "coding": [ {
          "system": "http://terminology.hl7.org/CodeSystem/observation-category",
          "code": "laboratory",
          "display": "Laboratory"
        }, {
          "system": "http://loinc.org",
          "code": "26436-6"
        } ]
      } ],
      "code": {
        "coding": [ {
          "system": "http://loinc.org",
          "code": "46418-0",
          "display": "inr-in-capillary-blood-by-coagulation-assay"
        } ],
        "text": "inr"
      },
      "subject": {
        "reference": "Patient/88f1c3d8fe502d936d77a0e85e0a956c89e8d2df685d0320b8988b12607eab08"
      },
      "encounter": {
        "reference": "Encounter/876cf466be82975fad227ac0d34fc28127c5590e8927ab0e4cbc01a3a683cea9"
      },
      "effectiveDateTime": "2020-05-08T17:04:00+00:00",
      "valueQuantity": {
        "value": 76.33030412937944,
        "unit": "{INR}",
        "system": "http://unitsofmeasure.org",
        "code": "{INR}"
      }
    },
    "request": {
      "method": "POST",
      "url": "Observation",
      "ifNoneExist": "identifier=https://mein.krankenhaus.de/fhir/NamingSystem/observationId|6e1e25d305a1176fca7f2a1cf50a374050f59a9729b863042e446b150fac5879"
    }
  }, {
    "fullUrl": "Observation/30730661e18c693f6172f8f7fe178a41783ad61874917fe77149d94c23776d49",
    "resource": {
      "resourceType": "Observation",
      "meta": {
        "profile": [ "https://www.medizininformatik-initiative.de/fhir/core/modul-labor/StructureDefinition/ObservationLab" ]
      },
      "identifier": [ {
        "type": {
          "coding": [ {
            "system": "http://terminology.hl7.org/CodeSystem/v2-0203",
            "code": "OBI",
            "display": "Observation Instance Identifier"
          } ]
        },
        "system": "https://mein.krankenhaus.de/fhir/NamingSystem/observationId",
        "value": "4b1790388a0f5705061dc5d6447754c69dbbc0eb43bbb5990e628498040e8389",
        "assigner": {
          "reference": "Organization/3a4f3433bce81181bad2d8e0b8fafccf7dc800bc06f29be73dcb38b750a48f9a"
        }
      } ],
      "status": "final",
      "category": [ {
        "coding": [ {
          "system": "http://terminology.hl7.org/CodeSystem/observation-category",
          "code": "laboratory",
          "display": "Laboratory"
        }, {
          "system": "http://loinc.org",
          "code": "26436-6"
        } ]
      } ],
      "code": {
        "coding": [ {
          "system": "http://loinc.org",
          "code": "61152-5",
          "display": "albumin-in-serum-or-plasma-by-bromocresol-purple-bcp-dye-binding-method"
        } ],
        "text": "serumalbumin"
      },
      "subject": {
        "reference": "Patient/88f1c3d8fe502d936d77a0e85e0a956c89e8d2df685d0320b8988b12607eab08"
      },
      "encounter": {
        "reference": "Encounter/876cf466be82975fad227ac0d34fc28127c5590e8927ab0e4cbc01a3a683cea9"
      },
      "effectiveDateTime": "2020-05-08T17:04:00+00:00",
      "valueQuantity": {
        "value": 25.948952271329528,
        "unit": "g/L",
        "system": "http://unitsofmeasure.org",
        "code": "g/L"
      }
    },
    "request": {
      "method": "POST",
      "url": "Observation",
      "ifNoneExist": "identifier=https://mein.krankenhaus.de/fhir/NamingSystem/observationId|30730661e18c693f6172f8f7fe178a41783ad61874917fe77149d94c23776d49"
    }
  }, {
    "fullUrl": "Observation/3db6db679fc4615cf06f3a2352ea279e70e6f707ce30b7e8380622bf22973e4b",
    "resource": {
      "resourceType": "Observation",
      "meta": {
        "profile": [ "https://www.medizininformatik-initiative.de/fhir/core/modul-labor/StructureDefinition/ObservationLab" ]
      },
      "identifier": [ {
        "type": {
          "coding": [ {
            "system": "http://terminology.hl7.org/CodeSystem/v2-0203",
            "code": "OBI",
            "display": "Observation Instance Identifier"
          } ]
        },
        "system": "https://mein.krankenhaus.de/fhir/NamingSystem/observationId",
        "value": "807504870e29681329723408a15abd5f51e6cb2f3937793fe40e2ee4a6c73ba0",
        "assigner": {
          "reference": "Organization/3a4f3433bce81181bad2d8e0b8fafccf7dc800bc06f29be73dcb38b750a48f9a"
        }
      } ],
      "status": "final",
      "category": [ {
        "coding": [ {
          "system": "http://terminology.hl7.org/CodeSystem/observation-category",
          "code": "laboratory",
          "display": "Laboratory"
        }, {
          "system": "http://loinc.org",
          "code": "26436-6"
        } ]
      } ],
      "code": {
        "coding": [ {
          "system": "http://loinc.org",
          "code": "27812-7",
          "display": "antithrombin-ag-actual-normal-in-platelet-poor-plasma-by-immunoassay"
        } ],
        "text": "antithrombin_iii"
      },
      "subject": {
        "reference": "Patient/88f1c3d8fe502d936d77a0e85e0a956c89e8d2df685d0320b8988b12607eab08"
      },
      "encounter": {
        "reference": "Encounter/876cf466be82975fad227ac0d34fc28127c5590e8927ab0e4cbc01a3a683cea9"
      },
      "effectiveDateTime": "2020-05-08T17:04:00+00:00",
      "valueQuantity": {
        "value": 70.39576765250894,
        "unit": "%",
        "system": "http://unitsofmeasure.org",
        "code": "%"
      }
    },
    "request": {
      "method": "POST",
      "url": "Observation",
      "ifNoneExist": "identifier=https://mein.krankenhaus.de/fhir/NamingSystem/observationId|3db6db679fc4615cf06f3a2352ea279e70e6f707ce30b7e8380622bf22973e4b"
    }
  }, {
    "fullUrl": "Observation/ce37869d1bd19d3c1d4dd78f3d5eed9bd83050287bce523a7a02911852169ab9",
    "resource": {
      "resourceType": "Observation",
      "meta": {
        "profile": [ "https://www.medizininformatik-initiative.de/fhir/core/modul-labor/StructureDefinition/ObservationLab" ]
      },
      "identifier": [ {
        "type": {
          "coding": [ {
            "system": "http://terminology.hl7.org/CodeSystem/v2-0203",
            "code": "OBI",
            "display": "Observation Instance Identifier"
          } ]
        },
        "system": "https://mein.krankenhaus.de/fhir/NamingSystem/observationId",
        "value": "f52ee1ff6740062e04b0df900ffd6e6c89f3f8e08f66b70598b7f35a94028e1c",
        "assigner": {
          "reference": "Organization/3a4f3433bce81181bad2d8e0b8fafccf7dc800bc06f29be73dcb38b750a48f9a"
        }
      } ],
      "status": "final",
      "category": [ {
        "coding": [ {
          "system": "http://terminology.hl7.org/CodeSystem/observation-category",
          "code": "laboratory",
          "display": "Laboratory"
        }, {
          "system": "http://loinc.org",
          "code": "26436-6"
        } ]
      } ],
      "code": {
        "coding": [ {
          "system": "http://loinc.org",
          "code": "75241-0"
        }, {
          "system": "http://loinc.org",
          "code": "33959-8"
        } ],
        "text": "pct_procalcitonin"
      },
      "subject": {
        "reference": "Patient/88f1c3d8fe502d936d77a0e85e0a956c89e8d2df685d0320b8988b12607eab08"
      },
      "encounter": {
        "reference": "Encounter/876cf466be82975fad227ac0d34fc28127c5590e8927ab0e4cbc01a3a683cea9"
      },
      "effectiveDateTime": "2020-05-08T17:04:00+00:00",
      "valueQuantity": {
        "value": 68.27586371912513,
        "unit": "ng/mL",
        "system": "http://unitsofmeasure.org",
        "code": "ng/mL"
      }
    },
    "request": {
      "method": "POST",
      "url": "Observation",
      "ifNoneExist": "identifier=https://mein.krankenhaus.de/fhir/NamingSystem/observationId|ce37869d1bd19d3c1d4dd78f3d5eed9bd83050287bce523a7a02911852169ab9"
    }
  }, {
    "fullUrl": "Observation/5f239a7c77e08766c1113ecc495caa272adb8aeddf0ee7f741b48346e36a77ae",
    "resource": {
      "resourceType": "Observation",
      "meta": {
        "profile": [ "https://www.medizininformatik-initiative.de/fhir/core/modul-labor/StructureDefinition/ObservationLab" ]
      },
      "identifier": [ {
        "type": {
          "coding": [ {
            "system": "http://terminology.hl7.org/CodeSystem/v2-0203",
            "code": "OBI",
            "display": "Observation Instance Identifier"
          } ]
        },
        "system": "https://mein.krankenhaus.de/fhir/NamingSystem/observationId",
        "value": "c8a5a8153e5029af1aef71be1097846d2ff5bd5f80d28ecf51dc2c04c3052e68",
        "assigner": {
          "reference": "Organization/3a4f3433bce81181bad2d8e0b8fafccf7dc800bc06f29be73dcb38b750a48f9a"
        }
      } ],
      "status": "final",
      "category": [ {
        "coding": [ {
          "system": "http://terminology.hl7.org/CodeSystem/observation-category",
          "code": "laboratory",
          "display": "Laboratory"
        }, {
          "system": "http://loinc.org",
          "code": "26436-6"
        } ]
      } ],
      "code": {
        "coding": [ {
          "system": "http://loinc.org",
          "code": "49919-4",
          "display": "interleukin-6-in-cerebral-spinal-fluid"
        } ],
        "text": "il6_interleukin_6"
      },
      "subject": {
        "reference": "Patient/88f1c3d8fe502d936d77a0e85e0a956c89e8d2df685d0320b8988b12607eab08"
      },
      "encounter": {
        "reference": "Encounter/876cf466be82975fad227ac0d34fc28127c5590e8927ab0e4cbc01a3a683cea9"
      },
      "effectiveDateTime": "2020-05-08T17:04:00+00:00",
      "valueQuantity": {
        "value": 71.52772409886987,
        "unit": "pg/mL",
        "system": "http://unitsofmeasure.org",
        "code": "pg/mL"
      }
    },
    "request": {
      "method": "POST",
      "url": "Observation",
      "ifNoneExist": "identifier=https://mein.krankenhaus.de/fhir/NamingSystem/observationId|5f239a7c77e08766c1113ecc495caa272adb8aeddf0ee7f741b48346e36a77ae"
    }
  }, {
    "fullUrl": "Observation/dc4585a7a7d05287cab87e2ebd5e78722907a2387225b9e00d0fcd08bdf88b04",
    "resource": {
      "resourceType": "Observation",
      "meta": {
        "profile": [ "https://www.medizininformatik-initiative.de/fhir/core/modul-labor/StructureDefinition/ObservationLab" ]
      },
      "identifier": [ {
        "type": {
          "coding": [ {
            "system": "http://terminology.hl7.org/CodeSystem/v2-0203",
            "code": "OBI",
            "display": "Observation Instance Identifier"
          } ]
        },
        "system": "https://mein.krankenhaus.de/fhir/NamingSystem/observationId",
        "value": "1bbf5bee7a82ac299b6a7e719c41d61576595ff50f086c2ba36f75205dbec876",
        "assigner": {
          "reference": "Organization/3a4f3433bce81181bad2d8e0b8fafccf7dc800bc06f29be73dcb38b750a48f9a"
        }
      } ],
      "status": "final",
      "category": [ {
        "coding": [ {
          "system": "http://terminology.hl7.org/CodeSystem/observation-category",
          "code": "laboratory",
          "display": "Laboratory"
        }, {
          "system": "http://loinc.org",
          "code": "26436-6"
        } ]
      } ],
      "code": {
        "coding": [ {
          "system": "http://loinc.org",
          "code": "83107-3",
          "display": "natriuretic-peptide.b-prohormone-n-terminal-in-serum-or-plasma-by-immunoassay"
        } ],
        "text": "ntprobnp"
      },
      "subject": {
        "reference": "Patient/88f1c3d8fe502d936d77a0e85e0a956c89e8d2df685d0320b8988b12607eab08"
      },
      "encounter": {
        "reference": "Encounter/876cf466be82975fad227ac0d34fc28127c5590e8927ab0e4cbc01a3a683cea9"
      },
      "effectiveDateTime": "2020-05-08T17:04:00+00:00",
      "valueQuantity": {
        "value": 0.015397945360884346,
        "unit": "pg/mL",
        "system": "http://unitsofmeasure.org",
        "code": "pg/mL"
      }
    },
    "request": {
      "method": "POST",
      "url": "Observation",
      "ifNoneExist": "identifier=https://mein.krankenhaus.de/fhir/NamingSystem/observationId|dc4585a7a7d05287cab87e2ebd5e78722907a2387225b9e00d0fcd08bdf88b04"
    }
  }, {
    "fullUrl": "Observation/16890e94f66217211f3501b3c54dc1550ced6ac57d4420fddae4a8d675779443",
    "resource": {
      "resourceType": "Observation",
      "meta": {
        "profile": [ "https://www.medizininformatik-initiative.de/fhir/core/modul-labor/StructureDefinition/ObservationLab" ]
      },
      "identifier": [ {
        "type": {
          "coding": [ {
            "system": "http://terminology.hl7.org/CodeSystem/v2-0203",
            "code": "OBI",
            "display": "Observation Instance Identifier"
          } ]
        },
        "system": "https://mein.krankenhaus.de/fhir/NamingSystem/observationId",
        "value": "657e062d0fdf74998e2fc5ca75547eb31885dc9e7c8a50e6a5877eb49bc8973b",
        "assigner": {
          "reference": "Organization/3a4f3433bce81181bad2d8e0b8fafccf7dc800bc06f29be73dcb38b750a48f9a"
        }
      } ],
      "status": "final",
      "category": [ {
        "coding": [ {
          "system": "http://terminology.hl7.org/CodeSystem/observation-category",
          "code": "laboratory",
          "display": "Laboratory"
        }, {
          "system": "http://loinc.org",
          "code": "26436-6"
        } ]
      } ],
      "code": {
        "coding": [ {
          "system": "http://loinc.org",
          "code": "48664-7",
          "display": "fibrinogen-in-platelet-poor-plasma-by-coagulation.derived"
        } ],
        "text": "fibrinogen"
      },
      "subject": {
        "reference": "Patient/88f1c3d8fe502d936d77a0e85e0a956c89e8d2df685d0320b8988b12607eab08"
      },
      "encounter": {
        "reference": "Encounter/876cf466be82975fad227ac0d34fc28127c5590e8927ab0e4cbc01a3a683cea9"
      },
      "effectiveDateTime": "2020-05-08T17:04:00+00:00",
      "valueQuantity": {
        "value": 22.289674654130486,
        "unit": "mg/dL",
        "system": "http://unitsofmeasure.org",
        "code": "mg/dL"
      }
    },
    "request": {
      "method": "POST",
      "url": "Observation",
      "ifNoneExist": "identifier=https://mein.krankenhaus.de/fhir/NamingSystem/observationId|16890e94f66217211f3501b3c54dc1550ced6ac57d4420fddae4a8d675779443"
    }
  }, {
    "fullUrl": "Observation/aae804c0e57aac0648e0a28388ed4a5f4f2761569c2220028a91df30194a7c02",
    "resource": {
      "resourceType": "Observation",
      "meta": {
        "profile": [ "https://www.netzwerk-universitaetsmedizin.de/fhir/StructureDefinition/sars-cov-2-rt-pcr" ]
      },
      "identifier": [ {
        "type": {
          "coding": [ {
            "system": "http://terminology.hl7.org/CodeSystem/v2-0203",
            "code": "OBI",
            "display": "Observation Instance Identifier"
          } ]
        },
        "system": "https://mein.krankenhaus.de/fhir/NamingSystem/observationId",
        "value": "dd5448b13650bc67b5bff2b0c05ec31bc46efa08f715912e7d3da17d7f56c61e",
        "assigner": {
          "reference": "Organization/3a4f3433bce81181bad2d8e0b8fafccf7dc800bc06f29be73dcb38b750a48f9a"
        }
      } ],
      "status": "final",
      "category": [ {
        "coding": [ {
          "system": "http://terminology.hl7.org/CodeSystem/observation-category",
          "code": "laboratory",
          "display": "Laboratory"
        }, {
          "system": "http://loinc.org",
          "code": "26436-6"
        } ]
      } ],
      "code": {
        "coding": [ {
          "system": "http://loinc.org",
          "code": "94500-6",
          "display": "sars-cov-2-covid-19-rna-in-respiratory-specimen-by-naa-with-probe-detection"
        } ],
        "text": "SARS-CoV-2-RNA (PCR)"
      },
      "subject": {
        "reference": "Patient/88f1c3d8fe502d936d77a0e85e0a956c89e8d2df685d0320b8988b12607eab08"
      },
      "encounter": {
        "reference": "Encounter/876cf466be82975fad227ac0d34fc28127c5590e8927ab0e4cbc01a3a683cea9"
      },
      "effectiveDateTime": "2020-05-08T17:04:00+00:00",
      "valueCodeableConcept": {
        "coding": [ {
          "system": "http://snomed.info/sct",
          "code": "419984006",
          "display": "Inconclusive (qualifier value)"
        } ],
        "text": "SARS-CoV-2-RNA nicht eindeutig"
      }
    },
    "request": {
      "method": "POST",
      "url": "Observation",
      "ifNoneExist": "identifier=https://mein.krankenhaus.de/fhir/NamingSystem/observationId|aae804c0e57aac0648e0a28388ed4a5f4f2761569c2220028a91df30194a7c02"
    }
  }, {
    "fullUrl": "Observation/56facab8395123ee3470c915129ae3922bb118ff2e50e85e213b4d2985c7d035",
    "resource": {
      "resourceType": "Observation",
      "meta": {
        "profile": [ "https://www.netzwerk-universitaetsmedizin.de/fhir/StructureDefinition/sars-cov-2-ab-pnl-ser-pl-ia" ]
      },
      "identifier": [ {
        "type": {
          "coding": [ {
            "system": "http://terminology.hl7.org/CodeSystem/v2-0203",
            "code": "OBI",
            "display": "Observation Instance Identifier"
          } ]
        },
        "system": "https://mein.krankenhaus.de/fhir/NamingSystem/observationId",
        "value": "dc675dbebbe82c3a2a2186dd9552cb584c8d441079eed8bed7459faf3e6fd816",
        "assigner": {
          "reference": "Organization/3a4f3433bce81181bad2d8e0b8fafccf7dc800bc06f29be73dcb38b750a48f9a"
        }
      } ],
      "status": "final",
      "category": [ {
        "coding": [ {
          "system": "http://terminology.hl7.org/CodeSystem/observation-category",
          "code": "laboratory",
          "display": "Laboratory"
        }, {
          "system": "http://loinc.org",
          "code": "26436-6"
        } ]
      } ],
      "code": {
        "coding": [ {
          "system": "http://loinc.org",
          "code": "94504-8"
        } ],
        "text": "sarsco_v2_covid19_ab_pnl"
      },
      "subject": {
        "reference": "Patient/88f1c3d8fe502d936d77a0e85e0a956c89e8d2df685d0320b8988b12607eab08"
      },
      "encounter": {
        "reference": "Encounter/876cf466be82975fad227ac0d34fc28127c5590e8927ab0e4cbc01a3a683cea9"
      },
      "effectiveDateTime": "2020-05-08T17:04:00+00:00",
      "hasMember": [ {
        "reference": "Observation/0ecb7a25672866c047a06f64e1a1386293b28af049840f71a8f631adca3bc5fc"
      }, {
        "reference": "Observation/93f8416468515fe25a4bea8f3e1a29799ff88a3caab3632d1e55b84fa3902265"
      }, {
        "reference": "Observation/0651079c7afd23463642623dc8122097f23818e38234f4fbebe481a0676150b0"
      }, {
        "reference": "Observation/0d78bc047328f0a25591126f7c8e437fc070127cb1536681034b3ae1e3b4512b"
      }, {
        "reference": "Observation/969d40ed89a13672f4e146933574a4c213a8fb3c2b8e223459439f2baf250d03"
      }, {
        "reference": "Observation/2f29e2feb89a6f54e052ceb2ddcd8cee7401c30484073d5d16bd11cc84626d70"
      }, {
        "reference": "Observation/c0ad046fd5f08c693dd146c80b2954dcbc1e62c3607595ac2900d48bfbe08fd3"
      }, {
        "reference": "Observation/52a3d15bcf107cdeb76b954d979c4d91abb3f1e08509d4a12f500e515edeef86"
      } ]
    },
    "request": {
      "method": "POST",
      "url": "Observation",
      "ifNoneExist": "identifier=https://mein.krankenhaus.de/fhir/NamingSystem/observationId|56facab8395123ee3470c915129ae3922bb118ff2e50e85e213b4d2985c7d035"
    }
  }, {
    "fullUrl": "Observation/0ecb7a25672866c047a06f64e1a1386293b28af049840f71a8f631adca3bc5fc",
    "resource": {
      "resourceType": "Observation",
      "meta": {
        "profile": [ "https://www.netzwerk-universitaetsmedizin.de/fhir/StructureDefinition/sars-cov-2-ab-ser-pl-ql-ia" ]
      },
      "identifier": [ {
        "type": {
          "coding": [ {
            "system": "http://terminology.hl7.org/CodeSystem/v2-0203",
            "code": "OBI",
            "display": "Observation Instance Identifier"
          } ]
        },
        "system": "https://mein.krankenhaus.de/fhir/NamingSystem/observationId",
        "value": "2989891360079ac9aaf627b2a2e02943fc87c4cebe4668e7d121313f03bfd3f0",
        "assigner": {
          "reference": "Organization/3a4f3433bce81181bad2d8e0b8fafccf7dc800bc06f29be73dcb38b750a48f9a"
        }
      } ],
      "status": "final",
      "category": [ {
        "coding": [ {
          "system": "http://terminology.hl7.org/CodeSystem/observation-category",
          "code": "laboratory",
          "display": "Laboratory"
        }, {
          "system": "http://loinc.org",
          "code": "26436-6"
        } ]
      } ],
      "code": {
        "coding": [ {
          "system": "http://loinc.org",
          "code": "94762-2",
          "display": "sars-cov-2-covid-19-ab-in-serum-or-plasma-by-immunoassay"
        } ],
        "text": "sarsco_v2_covid19_ab_ia_ql"
      },
      "subject": {
        "reference": "Patient/88f1c3d8fe502d936d77a0e85e0a956c89e8d2df685d0320b8988b12607eab08"
      },
      "encounter": {
        "reference": "Encounter/876cf466be82975fad227ac0d34fc28127c5590e8927ab0e4cbc01a3a683cea9"
      },
      "effectiveDateTime": "2020-05-08T17:04:00+00:00",
      "valueCodeableConcept": {
        "coding": [ {
          "system": "http://snomed.info/sct",
          "code": "419984006"
        } ]
      }
    },
    "request": {
      "method": "POST",
      "url": "Observation",
      "ifNoneExist": "identifier=https://mein.krankenhaus.de/fhir/NamingSystem/observationId|0ecb7a25672866c047a06f64e1a1386293b28af049840f71a8f631adca3bc5fc"
    }
  }, {
    "fullUrl": "Observation/93f8416468515fe25a4bea8f3e1a29799ff88a3caab3632d1e55b84fa3902265",
    "resource": {
      "resourceType": "Observation",
      "meta": {
        "profile": [ "https://www.netzwerk-universitaetsmedizin.de/fhir/StructureDefinition/sars-cov-2-ab-ser-pl-ia-acnc" ]
      },
      "identifier": [ {
        "type": {
          "coding": [ {
            "system": "http://terminology.hl7.org/CodeSystem/v2-0203",
            "code": "OBI",
            "display": "Observation Instance Identifier"
          } ]
        },
        "system": "https://mein.krankenhaus.de/fhir/NamingSystem/observationId",
        "value": "524b8cb76a6348abe83b5a5443a730400b7ab7eec462f373d8150f423a29ffb2",
        "assigner": {
          "reference": "Organization/3a4f3433bce81181bad2d8e0b8fafccf7dc800bc06f29be73dcb38b750a48f9a"
        }
      } ],
      "status": "final",
      "category": [ {
        "coding": [ {
          "system": "http://terminology.hl7.org/CodeSystem/observation-category",
          "code": "laboratory",
          "display": "Laboratory"
        }, {
          "system": "http://loinc.org",
          "code": "26436-6"
        } ]
      } ],
      "code": {
        "coding": [ {
          "system": "http://loinc.org",
          "code": "94769-7",
          "display": "sars-cov-2-covid-19-ab-in-serum-or-plasma-by-immunoassay"
        } ],
        "text": "sarsco_v2_covid19_ab_ia_qn"
      },
      "subject": {
        "reference": "Patient/88f1c3d8fe502d936d77a0e85e0a956c89e8d2df685d0320b8988b12607eab08"
      },
      "encounter": {
        "reference": "Encounter/876cf466be82975fad227ac0d34fc28127c5590e8927ab0e4cbc01a3a683cea9"
      },
      "effectiveDateTime": "2020-05-08T17:04:00+00:00",
      "valueQuantity": {
        "value": 55.46929098563002,
        "unit": "[IU]/mL",
        "system": "http://unitsofmeasure.org",
        "code": "[IU]/mL"
      }
    },
    "request": {
      "method": "POST",
      "url": "Observation",
      "ifNoneExist": "identifier=https://mein.krankenhaus.de/fhir/NamingSystem/observationId|93f8416468515fe25a4bea8f3e1a29799ff88a3caab3632d1e55b84fa3902265"
    }
  }, {
    "fullUrl": "Observation/0651079c7afd23463642623dc8122097f23818e38234f4fbebe481a0676150b0",
    "resource": {
      "resourceType": "Observation",
      "meta": {
        "profile": [ "https://www.netzwerk-universitaetsmedizin.de/fhir/StructureDefinition/sars-cov-2-iga-ser-pl-ql-ia" ]
      },
      "identifier": [ {
        "type": {
          "coding": [ {
            "system": "http://terminology.hl7.org/CodeSystem/v2-0203",
            "code": "OBI",
            "display": "Observation Instance Identifier"
          } ]
        },
        "system": "https://mein.krankenhaus.de/fhir/NamingSystem/observationId",
        "value": "b2ff7265c2545cf3a8d78859ca4cf69cbac4748f58411cbc956c978c75bf4a20",
        "assigner": {
          "reference": "Organization/3a4f3433bce81181bad2d8e0b8fafccf7dc800bc06f29be73dcb38b750a48f9a"
        }
      } ],
      "status": "final",
      "category": [ {
        "coding": [ {
          "system": "http://terminology.hl7.org/CodeSystem/observation-category",
          "code": "laboratory",
          "display": "Laboratory"
        }, {
          "system": "http://loinc.org",
          "code": "26436-6"
        } ]
      } ],
      "code": {
        "coding": [ {
          "system": "http://loinc.org",
          "code": "94562-6",
          "display": "sars-cov-2-covid-19-iga-ab-in-serum-or-plasma-by-immunoassay"
        } ],
        "text": "sarsco_v2_covid19_ig_a_ia_ql"
      },
      "subject": {
        "reference": "Patient/88f1c3d8fe502d936d77a0e85e0a956c89e8d2df685d0320b8988b12607eab08"
      },
      "encounter": {
        "reference": "Encounter/876cf466be82975fad227ac0d34fc28127c5590e8927ab0e4cbc01a3a683cea9"
      },
      "effectiveDateTime": "2020-05-08T17:04:00+00:00",
      "valueCodeableConcept": {
        "coding": [ {
          "system": "http://snomed.info/sct",
          "code": "260415000"
        } ]
      }
    },
    "request": {
      "method": "POST",
      "url": "Observation",
      "ifNoneExist": "identifier=https://mein.krankenhaus.de/fhir/NamingSystem/observationId|0651079c7afd23463642623dc8122097f23818e38234f4fbebe481a0676150b0"
    }
  }, {
    "fullUrl": "Observation/0d78bc047328f0a25591126f7c8e437fc070127cb1536681034b3ae1e3b4512b",
    "resource": {
      "resourceType": "Observation",
      "meta": {
        "profile": [ "https://www.netzwerk-universitaetsmedizin.de/fhir/StructureDefinition/sars-cov-2-iga-ser-pl-ia-acnc" ]
      },
      "identifier": [ {
        "type": {
          "coding": [ {
            "system": "http://terminology.hl7.org/CodeSystem/v2-0203",
            "code": "OBI",
            "display": "Observation Instance Identifier"
          } ]
        },
        "system": "https://mein.krankenhaus.de/fhir/NamingSystem/observationId",
        "value": "db95977a053b42af4ab21a9ea569a04f1caabb881105354bee1fd6bafca41b21",
        "assigner": {
          "reference": "Organization/3a4f3433bce81181bad2d8e0b8fafccf7dc800bc06f29be73dcb38b750a48f9a"
        }
      } ],
      "status": "final",
      "category": [ {
        "coding": [ {
          "system": "http://terminology.hl7.org/CodeSystem/observation-category",
          "code": "laboratory",
          "display": "Laboratory"
        }, {
          "system": "http://loinc.org",
          "code": "26436-6"
        } ]
      } ],
      "code": {
        "coding": [ {
          "system": "http://loinc.org",
          "code": "94720-0",
          "display": "sars-cov-2-covid-19-iga-ab-in-serum-or-plasma-by-immunoassay"
        } ],
        "text": "sarsco_v2_covid19_ig_a_ia_qn"
      },
      "subject": {
        "reference": "Patient/88f1c3d8fe502d936d77a0e85e0a956c89e8d2df685d0320b8988b12607eab08"
      },
      "encounter": {
        "reference": "Encounter/876cf466be82975fad227ac0d34fc28127c5590e8927ab0e4cbc01a3a683cea9"
      },
      "effectiveDateTime": "2020-05-08T17:04:00+00:00",
      "valueQuantity": {
        "value": 94.71201698574914,
        "unit": "[IU]/mL",
        "system": "http://unitsofmeasure.org",
        "code": "[IU]/mL"
      }
    },
    "request": {
      "method": "POST",
      "url": "Observation",
      "ifNoneExist": "identifier=https://mein.krankenhaus.de/fhir/NamingSystem/observationId|0d78bc047328f0a25591126f7c8e437fc070127cb1536681034b3ae1e3b4512b"
    }
  }, {
    "fullUrl": "Observation/969d40ed89a13672f4e146933574a4c213a8fb3c2b8e223459439f2baf250d03",
    "resource": {
      "resourceType": "Observation",
      "meta": {
        "profile": [ "https://www.netzwerk-universitaetsmedizin.de/fhir/StructureDefinition/sars-cov-2-igg-ser-pl-ql-ia" ]
      },
      "identifier": [ {
        "type": {
          "coding": [ {
            "system": "http://terminology.hl7.org/CodeSystem/v2-0203",
            "code": "OBI",
            "display": "Observation Instance Identifier"
          } ]
        },
        "system": "https://mein.krankenhaus.de/fhir/NamingSystem/observationId",
        "value": "257a47d38773a93271897b83748077bb7fe03b2b8e66fbcb58b1b8bcb6bef1c2",
        "assigner": {
          "reference": "Organization/3a4f3433bce81181bad2d8e0b8fafccf7dc800bc06f29be73dcb38b750a48f9a"
        }
      } ],
      "status": "final",
      "category": [ {
        "coding": [ {
          "system": "http://terminology.hl7.org/CodeSystem/observation-category",
          "code": "laboratory",
          "display": "Laboratory"
        }, {
          "system": "http://loinc.org",
          "code": "26436-6"
        } ]
      } ],
      "code": {
        "coding": [ {
          "system": "http://loinc.org",
          "code": "94563-4",
          "display": "sars-cov-2-covid-19-igg-ab-in-serum-or-plasma-by-immunoassay"
        } ],
        "text": "sarsco_v2_covid19_ig_g_ia_ql"
      },
      "subject": {
        "reference": "Patient/88f1c3d8fe502d936d77a0e85e0a956c89e8d2df685d0320b8988b12607eab08"
      },
      "encounter": {
        "reference": "Encounter/876cf466be82975fad227ac0d34fc28127c5590e8927ab0e4cbc01a3a683cea9"
      },
      "effectiveDateTime": "2020-05-08T17:04:00+00:00",
      "valueCodeableConcept": {
        "coding": [ {
          "system": "http://snomed.info/sct",
          "code": "260415000"
        } ]
      }
    },
    "request": {
      "method": "POST",
      "url": "Observation",
      "ifNoneExist": "identifier=https://mein.krankenhaus.de/fhir/NamingSystem/observationId|969d40ed89a13672f4e146933574a4c213a8fb3c2b8e223459439f2baf250d03"
    }
  }, {
    "fullUrl": "Observation/2f29e2feb89a6f54e052ceb2ddcd8cee7401c30484073d5d16bd11cc84626d70",
    "resource": {
      "resourceType": "Observation",
      "meta": {
        "profile": [ "https://www.netzwerk-universitaetsmedizin.de/fhir/StructureDefinition/sars-cov-2-igg-ser-pl-ia-acnc" ]
      },
      "identifier": [ {
        "type": {
          "coding": [ {
            "system": "http://terminology.hl7.org/CodeSystem/v2-0203",
            "code": "OBI",
            "display": "Observation Instance Identifier"
          } ]
        },
        "system": "https://mein.krankenhaus.de/fhir/NamingSystem/observationId",
        "value": "917fdd90982ce3b9fb26392e0adb47a26ec375dd6264640d0953d7f49c2d8656",
        "assigner": {
          "reference": "Organization/3a4f3433bce81181bad2d8e0b8fafccf7dc800bc06f29be73dcb38b750a48f9a"
        }
      } ],
      "status": "final",
      "category": [ {
        "coding": [ {
          "system": "http://terminology.hl7.org/CodeSystem/observation-category",
          "code": "laboratory",
          "display": "Laboratory"
        }, {
          "system": "http://loinc.org",
          "code": "26436-6"
        } ]
      } ],
      "code": {
        "coding": [ {
          "system": "http://loinc.org",
          "code": "94505-5",
          "display": "sars-cov-2-covid-19-igg-ab-in-serum-or-plasma-by-immunoassay"
        } ],
        "text": "sarsco_v2_covid19_ig_g_ia_qn"
      },
      "subject": {
        "reference": "Patient/88f1c3d8fe502d936d77a0e85e0a956c89e8d2df685d0320b8988b12607eab08"
      },
      "encounter": {
        "reference": "Encounter/876cf466be82975fad227ac0d34fc28127c5590e8927ab0e4cbc01a3a683cea9"
      },
      "effectiveDateTime": "2020-05-08T17:04:00+00:00",
      "valueQuantity": {
        "value": 46.32094444240259,
        "unit": "[arb'U]/mL",
        "system": "http://unitsofmeasure.org",
        "code": "[arb'U]/mL"
      }
    },
    "request": {
      "method": "POST",
      "url": "Observation",
      "ifNoneExist": "identifier=https://mein.krankenhaus.de/fhir/NamingSystem/observationId|2f29e2feb89a6f54e052ceb2ddcd8cee7401c30484073d5d16bd11cc84626d70"
    }
  }, {
    "fullUrl": "Observation/c0ad046fd5f08c693dd146c80b2954dcbc1e62c3607595ac2900d48bfbe08fd3",
    "resource": {
      "resourceType": "Observation",
      "meta": {
        "profile": [ "https://www.netzwerk-universitaetsmedizin.de/fhir/StructureDefinition/sars-cov-2-igm-ser-pl-ql-ia" ]
      },
      "identifier": [ {
        "type": {
          "coding": [ {
            "system": "http://terminology.hl7.org/CodeSystem/v2-0203",
            "code": "OBI",
            "display": "Observation Instance Identifier"
          } ]
        },
        "system": "https://mein.krankenhaus.de/fhir/NamingSystem/observationId",
        "value": "09a5c7f467718a8dbbccd4cfafd9211f908da6563b39af60134c686f18a86214",
        "assigner": {
          "reference": "Organization/3a4f3433bce81181bad2d8e0b8fafccf7dc800bc06f29be73dcb38b750a48f9a"
        }
      } ],
      "status": "final",
      "category": [ {
        "coding": [ {
          "system": "http://terminology.hl7.org/CodeSystem/observation-category",
          "code": "laboratory",
          "display": "Laboratory"
        }, {
          "system": "http://loinc.org",
          "code": "26436-6"
        } ]
      } ],
      "code": {
        "coding": [ {
          "system": "http://loinc.org",
          "code": "94564-2",
          "display": "sars-cov-2-covid-19-igm-ab-in-serum-or-plasma-by-immunoassay"
        } ],
        "text": "sarsco_v2_covid19_ig_m_ia_ql"
      },
      "subject": {
        "reference": "Patient/88f1c3d8fe502d936d77a0e85e0a956c89e8d2df685d0320b8988b12607eab08"
      },
      "encounter": {
        "reference": "Encounter/876cf466be82975fad227ac0d34fc28127c5590e8927ab0e4cbc01a3a683cea9"
      },
      "effectiveDateTime": "2020-05-08T17:04:00+00:00",
      "valueCodeableConcept": {
        "coding": [ {
          "system": "http://snomed.info/sct",
          "code": "260373001"
        } ]
      }
    },
    "request": {
      "method": "POST",
      "url": "Observation",
      "ifNoneExist": "identifier=https://mein.krankenhaus.de/fhir/NamingSystem/observationId|c0ad046fd5f08c693dd146c80b2954dcbc1e62c3607595ac2900d48bfbe08fd3"
    }
  }, {
    "fullUrl": "Observation/52a3d15bcf107cdeb76b954d979c4d91abb3f1e08509d4a12f500e515edeef86",
    "resource": {
      "resourceType": "Observation",
      "meta": {
        "profile": [ "https://www.netzwerk-universitaetsmedizin.de/fhir/StructureDefinition/sars-cov-2-igm-ser-pl-ia-acnc" ]
      },
      "identifier": [ {
        "type": {
          "coding": [ {
            "system": "http://terminology.hl7.org/CodeSystem/v2-0203",
            "code": "OBI",
            "display": "Observation Instance Identifier"
          } ]
        },
        "system": "https://mein.krankenhaus.de/fhir/NamingSystem/observationId",
        "value": "f436e18359ee9daf7883d7462fad3aaa29ef6fe07d7374f029a0bed5ad87db51",
        "assigner": {
          "reference": "Organization/3a4f3433bce81181bad2d8e0b8fafccf7dc800bc06f29be73dcb38b750a48f9a"
        }
      } ],
      "status": "final",
      "category": [ {
        "coding": [ {
          "system": "http://terminology.hl7.org/CodeSystem/observation-category",
          "code": "laboratory",
          "display": "Laboratory"
        }, {
          "system": "http://loinc.org",
          "code": "26436-6"
        } ]
      } ],
      "code": {
        "coding": [ {
          "system": "http://loinc.org",
          "code": "94506-3",
          "display": "sars-cov-2-covid-19-igm-ab-in-serum-or-plasma-by-immunoassay"
        } ],
        "text": "sarsco_v2_covid19_ig_m_ia_qn"
      },
      "subject": {
        "reference": "Patient/88f1c3d8fe502d936d77a0e85e0a956c89e8d2df685d0320b8988b12607eab08"
      },
      "encounter": {
        "reference": "Encounter/876cf466be82975fad227ac0d34fc28127c5590e8927ab0e4cbc01a3a683cea9"
      },
      "effectiveDateTime": "2020-05-08T17:04:00+00:00",
      "valueQuantity": {
        "value": 97.05882136301523,
        "unit": "[arb'U]/mL",
        "system": "http://unitsofmeasure.org",
        "code": "[arb'U]/mL"
      }
    },
    "request": {
      "method": "POST",
      "url": "Observation",
      "ifNoneExist": "identifier=https://mein.krankenhaus.de/fhir/NamingSystem/observationId|52a3d15bcf107cdeb76b954d979c4d91abb3f1e08509d4a12f500e515edeef86"
    }
  }, {
    "fullUrl": "MedicationStatement/b569ca79f9d856ecc88f1f68dc1f816a517aa208f097e87221ab5882e57b7955",
    "resource": {
      "resourceType": "MedicationStatement",
      "meta": {
        "profile": [ "https://www.netzwerk-universitaetsmedizin.de/fhir/StructureDefinition/pharmacological-therapy" ]
      },
      "identifier": [ {
        "system": "https://mein.krankenhaus.de/fhir/NamingSystem/medicationstatementId",
        "value": "07b62c301703162a414eee7d86cde602ee7d590eb7ecf0937531cc9ce241a6ec"
      } ],
      "status": "not-taken",
      "medicationCodeableConcept": {
        "coding": [ {
          "system": "http://snomed.info/sct",
          "code": "41549009"
        } ],
        "text": "ACE inhibitors"
      },
      "subject": {
        "reference": "Patient/88f1c3d8fe502d936d77a0e85e0a956c89e8d2df685d0320b8988b12607eab08"
      },
      "effectiveDateTime": "2020-04-22T12:16:00+00:00"
    },
    "request": {
      "method": "POST",
      "url": "MedicationStatement",
      "ifNoneExist": "identifier=https://mein.krankenhaus.de/fhir/NamingSystem/medicationstatementId|b569ca79f9d856ecc88f1f68dc1f816a517aa208f097e87221ab5882e57b7955"
    }
  }, {
    "fullUrl": "MedicationStatement/53473bd8ce403f378945cd41244a5875881c7d3a438b0f99e6badc5aea686f03",
    "resource": {
      "resourceType": "MedicationStatement",
      "meta": {
        "profile": [ "https://www.netzwerk-universitaetsmedizin.de/fhir/StructureDefinition/pharmacological-therapy" ]
      },
      "identifier": [ {
        "system": "https://mein.krankenhaus.de/fhir/NamingSystem/medicationstatementId",
        "value": "b7a1176e11fad0a93d75557ea389dfd09b39385b4de639f79754e13c15a195ac"
      } ],
      "status": "not-taken",
      "medicationCodeableConcept": {
        "coding": [ {
          "system": "http://snomed.info/sct",
          "code": "333710000"
        } ],
        "text": "immunoglobulins"
      },
      "subject": {
        "reference": "Patient/88f1c3d8fe502d936d77a0e85e0a956c89e8d2df685d0320b8988b12607eab08"
      },
      "effectiveDateTime": "2020-04-22T12:16:00+00:00"
    },
    "request": {
      "method": "POST",
      "url": "MedicationStatement",
      "ifNoneExist": "identifier=https://mein.krankenhaus.de/fhir/NamingSystem/medicationstatementId|53473bd8ce403f378945cd41244a5875881c7d3a438b0f99e6badc5aea686f03"
    }
  }, {
    "fullUrl": "MedicationStatement/454f359877d1ef22804adfdc42b1c89894699e9568d4dbfe2f8ddbd1e0c38c39",
    "resource": {
      "resourceType": "MedicationStatement",
      "meta": {
        "profile": [ "https://www.netzwerk-universitaetsmedizin.de/fhir/StructureDefinition/pharmacological-therapy" ]
      },
      "identifier": [ {
        "system": "https://mein.krankenhaus.de/fhir/NamingSystem/medicationstatementId",
        "value": "07e5d0e917c78381b5605fdcd3800716969b1b7793d140e233aab15bf9ecc1c3"
      } ],
      "status": "not-taken",
      "medicationCodeableConcept": {
        "coding": [ {
          "system": "http://snomed.info/sct",
          "code": "41549009"
        } ],
        "text": "ACE inhibitors"
      },
      "subject": {
        "reference": "Patient/88f1c3d8fe502d936d77a0e85e0a956c89e8d2df685d0320b8988b12607eab08"
      },
      "effectiveDateTime": "2020-10-10T05:46:00+00:00"
    },
    "request": {
      "method": "POST",
      "url": "MedicationStatement",
      "ifNoneExist": "identifier=https://mein.krankenhaus.de/fhir/NamingSystem/medicationstatementId|454f359877d1ef22804adfdc42b1c89894699e9568d4dbfe2f8ddbd1e0c38c39"
    }
  }, {
    "fullUrl": "MedicationStatement/53af0651f31940dcee9fa4752ddd88bd00a4a7f38e9bdf7e29fcd0c5df1a2889",
    "resource": {
      "resourceType": "MedicationStatement",
      "meta": {
        "profile": [ "https://www.netzwerk-universitaetsmedizin.de/fhir/StructureDefinition/pharmacological-therapy" ]
      },
      "identifier": [ {
        "system": "https://mein.krankenhaus.de/fhir/NamingSystem/medicationstatementId",
        "value": "9eacc1ae9644c249068151ad87020e98fe368a08f23d98fc411fbb8f8913c8b1"
      } ],
      "status": "active",
      "medicationCodeableConcept": {
        "coding": [ {
          "system": "http://snomed.info/sct",
          "code": "41549009"
        } ],
        "text": "ACE inhibitors"
      },
      "subject": {
        "reference": "Patient/88f1c3d8fe502d936d77a0e85e0a956c89e8d2df685d0320b8988b12607eab08"
      },
      "effectiveDateTime": "2020-01-18T16:53:00+00:00"
    },
    "request": {
      "method": "POST",
      "url": "MedicationStatement",
      "ifNoneExist": "identifier=https://mein.krankenhaus.de/fhir/NamingSystem/medicationstatementId|53af0651f31940dcee9fa4752ddd88bd00a4a7f38e9bdf7e29fcd0c5df1a2889"
    }
  }, {
    "fullUrl": "MedicationStatement/6fd6891f3df30f764de414896660961c18811126be5252275992c841840dae3c",
    "resource": {
      "resourceType": "MedicationStatement",
      "meta": {
        "profile": [ "https://www.netzwerk-universitaetsmedizin.de/fhir/StructureDefinition/pharmacological-therapy" ]
      },
      "identifier": [ {
        "system": "https://mein.krankenhaus.de/fhir/NamingSystem/medicationstatementId",
        "value": "cd282d5cce07b6167e31d4344f220b7f20bd034d5b787cb5206949732c0d6a87"
      } ],
      "status": "active",
      "medicationCodeableConcept": {
        "coding": [ {
          "system": "http://snomed.info/sct",
          "code": "333710000"
        } ],
        "text": "immunoglobulins"
      },
      "subject": {
        "reference": "Patient/88f1c3d8fe502d936d77a0e85e0a956c89e8d2df685d0320b8988b12607eab08"
      },
      "effectiveDateTime": "2020-01-18T16:53:00+00:00"
    },
    "request": {
      "method": "POST",
      "url": "MedicationStatement",
      "ifNoneExist": "identifier=https://mein.krankenhaus.de/fhir/NamingSystem/medicationstatementId|6fd6891f3df30f764de414896660961c18811126be5252275992c841840dae3c"
    }
  }, {
    "fullUrl": "MedicationStatement/72c19cf4b3fc0b9b49f6eb78dfe5e98f966b5f5c297f98ba02b478045b976c35",
    "resource": {
      "resourceType": "MedicationStatement",
      "meta": {
        "profile": [ "https://www.netzwerk-universitaetsmedizin.de/fhir/StructureDefinition/pharmacological-therapy-anticoagulants" ]
      },
      "identifier": [ {
        "system": "https://mein.krankenhaus.de/fhir/NamingSystem/medicationstatementId",
        "value": "6d1ffb261383b7696601c9c978cd451323168eb62358ea51dd3f48f7b7f9a430"
      } ],
      "status": "unknown",
      "medicationCodeableConcept": {
        "coding": [ {
          "system": "http://snomed.info/sct",
          "code": "81839001"
        }, {
          "system": "http://fhir.de/CodeSystem/dimdi/atc",
          "code": "B01AB01"
        }, {
          "system": "http://fhir.de/CodeSystem/dimdi/atc",
          "code": "B01AB51"
        } ]
      },
      "subject": {
        "reference": "Patient/88f1c3d8fe502d936d77a0e85e0a956c89e8d2df685d0320b8988b12607eab08"
      },
      "effectiveDateTime": "2020-01-18T16:53:00+00:00",
      "reasonCode": [ {
        "coding": [ {
          "system": "http://snomed.info/sct",
          "code": "373808002",
          "display": "Curative - procedure intent (qualifier value)"
        } ]
      } ]
    },
    "request": {
      "method": "POST",
      "url": "MedicationStatement",
      "ifNoneExist": "identifier=https://mein.krankenhaus.de/fhir/NamingSystem/medicationstatementId|72c19cf4b3fc0b9b49f6eb78dfe5e98f966b5f5c297f98ba02b478045b976c35"
    }
  }, {
    "fullUrl": "MedicationStatement/74c44f16c345ee363b7105e4e8d3e771a46abcbce328e7babc49fcbd329a72dd",
    "resource": {
      "resourceType": "MedicationStatement",
      "meta": {
        "profile": [ "https://www.netzwerk-universitaetsmedizin.de/fhir/StructureDefinition/pharmacological-therapy-anticoagulants" ]
      },
      "identifier": [ {
        "system": "https://mein.krankenhaus.de/fhir/NamingSystem/medicationstatementId",
        "value": "e3f9ea7ca30f182492945791c161c6ffc4fe858b87841843d7a235d451f130ec"
      } ],
      "status": "active",
      "medicationCodeableConcept": {
        "coding": [ {
          "system": "http://snomed.info/sct",
          "code": "81839001"
        }, {
          "system": "http://fhir.de/CodeSystem/dimdi/atc",
          "code": "B01AB08"
        }, {
          "system": "http://fhir.de/CodeSystem/dimdi/atc",
          "code": "B01AB13"
        }, {
          "system": "http://fhir.de/CodeSystem/dimdi/atc",
          "code": "B01AB04"
        }, {
          "system": "http://fhir.de/CodeSystem/dimdi/atc",
          "code": "B01AB05"
        }, {
          "system": "http://fhir.de/CodeSystem/dimdi/atc",
          "code": "B01AB06"
        }, {
          "system": "http://fhir.de/CodeSystem/dimdi/atc",
          "code": "B01AB10"
        }, {
          "system": "http://fhir.de/CodeSystem/dimdi/atc",
          "code": "B01AB12"
        }, {
          "system": "http://fhir.de/CodeSystem/dimdi/atc",
          "code": "B01AB63"
        }, {
          "system": "http://fhir.de/CodeSystem/dimdi/atc",
          "code": "B01AB07"
        }, {
          "system": "http://fhir.de/CodeSystem/dimdi/atc",
          "code": "B01AB11"
        } ]
      },
      "subject": {
        "reference": "Patient/88f1c3d8fe502d936d77a0e85e0a956c89e8d2df685d0320b8988b12607eab08"
      },
      "effectiveDateTime": "2020-01-18T16:53:00+00:00",
      "reasonCode": [ {
        "coding": [ {
          "system": "http://snomed.info/sct",
          "code": "373808002",
          "display": "Curative - procedure intent (qualifier value)"
        } ]
      } ]
    },
    "request": {
      "method": "POST",
      "url": "MedicationStatement",
      "ifNoneExist": "identifier=https://mein.krankenhaus.de/fhir/NamingSystem/medicationstatementId|74c44f16c345ee363b7105e4e8d3e771a46abcbce328e7babc49fcbd329a72dd"
    }
  }, {
    "fullUrl": "MedicationStatement/1ddaa02589348ac02a4c89a046368d5a11c69ad1fff7a0ea0733100203823a8a",
    "resource": {
      "resourceType": "MedicationStatement",
      "meta": {
        "profile": [ "https://www.netzwerk-universitaetsmedizin.de/fhir/StructureDefinition/pharmacological-therapy-anticoagulants" ]
      },
      "identifier": [ {
        "system": "https://mein.krankenhaus.de/fhir/NamingSystem/medicationstatementId",
        "value": "df19987e3d9605b9fc995a5f9c00bd304b8646a096d3c7cd13844ed6f1ade9ca"
      } ],
      "status": "active",
      "medicationCodeableConcept": {
        "coding": [ {
          "system": "http://snomed.info/sct",
          "code": "81839001"
        }, {
          "system": "http://fhir.de/CodeSystem/dimdi/atc",
          "code": "B01AE03"
        } ]
      },
      "subject": {
        "reference": "Patient/88f1c3d8fe502d936d77a0e85e0a956c89e8d2df685d0320b8988b12607eab08"
      },
      "effectiveDateTime": "2020-01-18T16:53:00+00:00",
      "reasonCode": [ {
        "coding": [ {
          "system": "http://snomed.info/sct",
          "code": "373808002",
          "display": "Curative - procedure intent (qualifier value)"
        } ]
      } ]
    },
    "request": {
      "method": "POST",
      "url": "MedicationStatement",
      "ifNoneExist": "identifier=https://mein.krankenhaus.de/fhir/NamingSystem/medicationstatementId|1ddaa02589348ac02a4c89a046368d5a11c69ad1fff7a0ea0733100203823a8a"
    }
  }, {
    "fullUrl": "MedicationStatement/ce78bf6606817373957387ea6dec9579975521c78f95505cd2f589ba4ee263c8",
    "resource": {
      "resourceType": "MedicationStatement",
      "meta": {
        "profile": [ "https://www.netzwerk-universitaetsmedizin.de/fhir/StructureDefinition/pharmacological-therapy-anticoagulants" ]
      },
      "identifier": [ {
        "system": "https://mein.krankenhaus.de/fhir/NamingSystem/medicationstatementId",
        "value": "b32a3b486ab1a786ebaa701c0b0577e0c1b463d8b695957ef3b3c2bbf3b58b98"
      } ],
      "status": "not-taken",
      "medicationCodeableConcept": {
        "coding": [ {
          "system": "http://snomed.info/sct",
          "code": "81839001"
        }, {
          "system": "http://fhir.de/CodeSystem/dimdi/atc",
          "code": "B01AC"
        } ]
      },
      "subject": {
        "reference": "Patient/88f1c3d8fe502d936d77a0e85e0a956c89e8d2df685d0320b8988b12607eab08"
      },
      "effectiveDateTime": "2020-01-18T16:53:00+00:00",
      "reasonCode": [ {
        "coding": [ {
          "system": "http://snomed.info/sct",
          "code": "373808002",
          "display": "Curative - procedure intent (qualifier value)"
        } ]
      } ]
    },
    "request": {
      "method": "POST",
      "url": "MedicationStatement",
      "ifNoneExist": "identifier=https://mein.krankenhaus.de/fhir/NamingSystem/medicationstatementId|ce78bf6606817373957387ea6dec9579975521c78f95505cd2f589ba4ee263c8"
    }
  }, {
    "fullUrl": "MedicationStatement/419cce733328604bc10e67ea1b360bdf424e2a1de6053e636c2353ea2f06223c",
    "resource": {
      "resourceType": "MedicationStatement",
      "meta": {
        "profile": [ "https://www.netzwerk-universitaetsmedizin.de/fhir/StructureDefinition/pharmacological-therapy-anticoagulants" ]
      },
      "identifier": [ {
        "system": "https://mein.krankenhaus.de/fhir/NamingSystem/medicationstatementId",
        "value": "9a24e71a71104373e5e6035689e98b1509bf1f921f9dbbc7f9d538766613f417"
      } ],
      "status": "unknown",
      "medicationCodeableConcept": {
        "coding": [ {
          "system": "http://snomed.info/sct",
          "code": "81839001"
        }, {
          "system": "http://fhir.de/CodeSystem/dimdi/atc",
          "code": "B01AB09"
        } ]
      },
      "subject": {
        "reference": "Patient/88f1c3d8fe502d936d77a0e85e0a956c89e8d2df685d0320b8988b12607eab08"
      },
      "effectiveDateTime": "2020-01-18T16:53:00+00:00",
      "reasonCode": [ {
        "coding": [ {
          "system": "http://snomed.info/sct",
          "code": "373808002",
          "display": "Curative - procedure intent (qualifier value)"
        } ]
      } ]
    },
    "request": {
      "method": "POST",
      "url": "MedicationStatement",
      "ifNoneExist": "identifier=https://mein.krankenhaus.de/fhir/NamingSystem/medicationstatementId|419cce733328604bc10e67ea1b360bdf424e2a1de6053e636c2353ea2f06223c"
    }
  }, {
    "fullUrl": "MedicationStatement/82fcb948db5cc7e4bfdb76baf2a8c1be5875fac1957e87aaf1eab4cf5994c73d",
    "resource": {
      "resourceType": "MedicationStatement",
      "meta": {
        "profile": [ "https://www.netzwerk-universitaetsmedizin.de/fhir/StructureDefinition/pharmacological-therapy-anticoagulants" ]
      },
      "identifier": [ {
        "system": "https://mein.krankenhaus.de/fhir/NamingSystem/medicationstatementId",
        "value": "431fedffc6af4b78dbbb927a20e9e0cc4e4113a0d13275ae4a77f7841a32ea08"
      } ],
      "status": "not-taken",
      "medicationCodeableConcept": {
        "coding": [ {
          "system": "http://snomed.info/sct",
          "code": "81839001"
        }, {
          "system": "http://fhir.de/CodeSystem/dimdi/atc",
          "code": "B01AA04"
        } ]
      },
      "subject": {
        "reference": "Patient/88f1c3d8fe502d936d77a0e85e0a956c89e8d2df685d0320b8988b12607eab08"
      },
      "effectiveDateTime": "2020-01-18T16:53:00+00:00",
      "reasonCode": [ {
        "coding": [ {
          "system": "http://snomed.info/sct",
          "code": "373808002",
          "display": "Curative - procedure intent (qualifier value)"
        } ]
      } ]
    },
    "request": {
      "method": "POST",
      "url": "MedicationStatement",
      "ifNoneExist": "identifier=https://mein.krankenhaus.de/fhir/NamingSystem/medicationstatementId|82fcb948db5cc7e4bfdb76baf2a8c1be5875fac1957e87aaf1eab4cf5994c73d"
    }
  }, {
    "fullUrl": "MedicationStatement/260952299bdd6a201c01a9d117c5475e3681fd26c69f01da6e5b6535de1c775e",
    "resource": {
      "resourceType": "MedicationStatement",
      "meta": {
        "profile": [ "https://www.netzwerk-universitaetsmedizin.de/fhir/StructureDefinition/pharmacological-therapy-anticoagulants" ]
      },
      "identifier": [ {
        "system": "https://mein.krankenhaus.de/fhir/NamingSystem/medicationstatementId",
        "value": "6866cebfe9b0fbe43c49719bf44a59a88ce3c157897ca236c738a385d7dbc8f6"
      } ],
      "status": "unknown",
      "medicationCodeableConcept": {
        "coding": [ {
          "system": "http://snomed.info/sct",
          "code": "81839001"
        }, {
          "system": "http://fhir.de/CodeSystem/dimdi/atc",
          "code": "B01AE"
        }, {
          "system": "http://fhir.de/CodeSystem/dimdi/atc",
          "code": "B01AF"
        } ]
      },
      "subject": {
        "reference": "Patient/88f1c3d8fe502d936d77a0e85e0a956c89e8d2df685d0320b8988b12607eab08"
      },
      "effectiveDateTime": "2020-01-18T16:53:00+00:00",
      "reasonCode": [ {
        "coding": [ {
          "system": "http://snomed.info/sct",
          "code": "373808002",
          "display": "Curative - procedure intent (qualifier value)"
        } ]
      } ]
    },
    "request": {
      "method": "POST",
      "url": "MedicationStatement",
      "ifNoneExist": "identifier=https://mein.krankenhaus.de/fhir/NamingSystem/medicationstatementId|260952299bdd6a201c01a9d117c5475e3681fd26c69f01da6e5b6535de1c775e"
    }
  }, {
    "fullUrl": "MedicationStatement/8d4d9ae21ed22ea5aaad9eea0b3520b6e377d7c317c53f6bfb3c59fa187e3459",
    "resource": {
      "resourceType": "MedicationStatement",
      "meta": {
        "profile": [ "https://www.netzwerk-universitaetsmedizin.de/fhir/StructureDefinition/pharmacological-therapy-anticoagulants" ]
      },
      "identifier": [ {
        "system": "https://mein.krankenhaus.de/fhir/NamingSystem/medicationstatementId",
        "value": "10edbfa3f4efdf9643887a570a75c8a72d501b69c9cbd5a01553453663eeab1e"
      } ],
      "status": "unknown",
      "medicationCodeableConcept": {
        "coding": [ {
          "system": "http://snomed.info/sct",
          "code": "81839001"
        } ]
      },
      "subject": {
        "reference": "Patient/88f1c3d8fe502d936d77a0e85e0a956c89e8d2df685d0320b8988b12607eab08"
      },
      "effectiveDateTime": "2020-01-18T16:53:00+00:00",
      "reasonCode": [ {
        "coding": [ {
          "system": "http://snomed.info/sct",
          "code": "373808002",
          "display": "Curative - procedure intent (qualifier value)"
        } ]
      } ]
    },
    "request": {
      "method": "POST",
      "url": "MedicationStatement",
      "ifNoneExist": "identifier=https://mein.krankenhaus.de/fhir/NamingSystem/medicationstatementId|8d4d9ae21ed22ea5aaad9eea0b3520b6e377d7c317c53f6bfb3c59fa187e3459"
    }
  }, {
    "fullUrl": "Observation/88d0788d7b3a8ee9398a1373b04bf3552d811b76580bdb7ed200c545065b18bb",
    "resource": {
      "resourceType": "Observation",
      "meta": {
        "profile": [ "https://www.netzwerk-universitaetsmedizin.de/fhir/StructureDefinition/carbon-dioxide-partial-pressure" ]
      },
      "identifier": [ {
        "type": {
          "coding": [ {
            "system": "http://terminology.hl7.org/CodeSystem/v2-0203",
            "code": "OBI",
            "display": "Observation Instance Identifier"
          } ]
        },
        "system": "https://mein.krankenhaus.de/fhir/NamingSystem/observationId",
        "value": "5a1a2d096eeead0b9842e9f158e77110d38bca1d8b7958b772bfc9439481422b",
        "assigner": {
          "reference": "Organization/3a4f3433bce81181bad2d8e0b8fafccf7dc800bc06f29be73dcb38b750a48f9a"
        }
      } ],
      "status": "final",
      "category": [ {
        "coding": [ {
          "system": "http://terminology.hl7.org/CodeSystem/observation-category",
          "code": "laboratory",
          "display": "Laboratory"
        }, {
          "system": "http://loinc.org",
          "code": "26436-6",
          "display": "Laboratory studies (set)"
        }, {
          "system": "http://loinc.org",
          "code": "18767-4",
          "display": "Blood gas studies (set)"
        } ]
      } ],
      "code": {
        "coding": [ {
          "system": "http://loinc.org",
          "code": "11557-6"
        } ],
        "text": "Carbon dioxide [Partial pressure] in blood"
      },
      "subject": {
        "reference": "Patient/88f1c3d8fe502d936d77a0e85e0a956c89e8d2df685d0320b8988b12607eab08"
      },
      "encounter": {
        "reference": "Encounter/876cf466be82975fad227ac0d34fc28127c5590e8927ab0e4cbc01a3a683cea9"
      },
      "effectiveDateTime": "2020-06-21T08:34:00+00:00",
      "valueQuantity": {
        "value": 45,
        "unit": "mmHg",
        "system": "http://unitsofmeasure.org",
        "code": "mm[Hg]"
      }
    },
    "request": {
      "method": "POST",
      "url": "Observation",
      "ifNoneExist": "identifier=https://mein.krankenhaus.de/fhir/NamingSystem/observationId|88d0788d7b3a8ee9398a1373b04bf3552d811b76580bdb7ed200c545065b18bb"
    }
  }, {
    "fullUrl": "Observation/a9bd5f29ddc9ca7f9a8e41c1fb108769e435392733245e433c8abd85165359f1",
    "resource": {
      "resourceType": "Observation",
      "meta": {
        "profile": [ "https://www.netzwerk-universitaetsmedizin.de/fhir/StructureDefinition/oxygen-partial-pressure" ]
      },
      "identifier": [ {
        "type": {
          "coding": [ {
            "system": "http://terminology.hl7.org/CodeSystem/v2-0203",
            "code": "OBI",
            "display": "Observation Instance Identifier"
          } ]
        },
        "system": "https://mein.krankenhaus.de/fhir/NamingSystem/observationId",
        "value": "6f3ab64418d79e11dc852ee4a25ea53fc3e6c317a67fbb541b7c2befaddef3e5",
        "assigner": {
          "reference": "Organization/3a4f3433bce81181bad2d8e0b8fafccf7dc800bc06f29be73dcb38b750a48f9a"
        }
      } ],
      "status": "final",
      "category": [ {
        "coding": [ {
          "system": "http://terminology.hl7.org/CodeSystem/observation-category",
          "code": "laboratory",
          "display": "Laboratory"
        }, {
          "system": "http://loinc.org",
          "code": "26436-6",
          "display": "Laboratory studies (set)"
        }, {
          "system": "http://loinc.org",
          "code": "18767-4",
          "display": "Blood gas studies (set)"
        } ]
      } ],
      "code": {
        "coding": [ {
          "system": "http://loinc.org",
          "code": "11557-8"
        } ],
        "text": "Oxygen [Partial pressure] in blood"
      },
      "subject": {
        "reference": "Patient/88f1c3d8fe502d936d77a0e85e0a956c89e8d2df685d0320b8988b12607eab08"
      },
      "encounter": {
        "reference": "Encounter/876cf466be82975fad227ac0d34fc28127c5590e8927ab0e4cbc01a3a683cea9"
      },
      "effectiveDateTime": "2020-06-21T08:34:00+00:00",
      "valueQuantity": {
        "value": 120,
        "unit": "mmHg",
        "system": "http://unitsofmeasure.org",
        "code": "mm[Hg]"
      }
    },
    "request": {
      "method": "POST",
      "url": "Observation",
      "ifNoneExist": "identifier=https://mein.krankenhaus.de/fhir/NamingSystem/observationId|a9bd5f29ddc9ca7f9a8e41c1fb108769e435392733245e433c8abd85165359f1"
    }
  }, {
    "fullUrl": "Observation/8dd6654f450a2ba2c0bc1bee9db18b72d47aa36ea5f79d02145c4ac169cec56b",
    "resource": {
      "resourceType": "Observation",
      "meta": {
        "profile": [ "https://www.netzwerk-universitaetsmedizin.de/fhir/StructureDefinition/inhaled-oxygen-concentration" ]
      },
      "identifier": [ {
        "type": {
          "coding": [ {
            "system": "http://terminology.hl7.org/CodeSystem/v2-0203",
            "code": "OBI",
            "display": "Observation Instance Identifier"
          } ]
        },
        "system": "https://mein.krankenhaus.de/fhir/NamingSystem/observationId",
        "value": "711dcce3c4d0b45fdb25c01221a544e1f8cdc97574654e8ec8daf922e1613e7f",
        "assigner": {
          "reference": "Organization/3a4f3433bce81181bad2d8e0b8fafccf7dc800bc06f29be73dcb38b750a48f9a"
        }
      } ],
      "status": "final",
      "category": [ {
        "coding": [ {
          "system": "http://terminology.hl7.org/CodeSystem/observation-category",
          "code": "laboratory",
          "display": "Laboratory"
        }, {
          "system": "http://loinc.org",
          "code": "26436-6",
          "display": "Laboratory studies (set)"
        }, {
          "system": "http://loinc.org",
          "code": "18767-4",
          "display": "Blood gas studies (set)"
        } ]
      } ],
      "code": {
        "coding": [ {
          "system": "http://loinc.org",
          "code": "3150-0"
        }, {
          "system": "http://snomed.info/sct",
          "code": "250774007"
        } ],
        "text": "Oxygen [Partial pressure] in blood"
      },
      "subject": {
        "reference": "Patient/88f1c3d8fe502d936d77a0e85e0a956c89e8d2df685d0320b8988b12607eab08"
      },
      "encounter": {
        "reference": "Encounter/876cf466be82975fad227ac0d34fc28127c5590e8927ab0e4cbc01a3a683cea9"
      },
      "effectiveDateTime": "2020-06-21T08:34:00+00:00",
      "valueQuantity": {
        "value": 15.561028094456574,
        "unit": "%",
        "system": "http://unitsofmeasure.org",
        "code": "%"
      }
    },
    "request": {
      "method": "POST",
      "url": "Observation",
      "ifNoneExist": "identifier=https://mein.krankenhaus.de/fhir/NamingSystem/observationId|8dd6654f450a2ba2c0bc1bee9db18b72d47aa36ea5f79d02145c4ac169cec56b"
    }
  }, {
    "fullUrl": "Observation/dcbae78e94683d44958af85e63f508d29480718c201649c9585e1bc6cd80b8a0",
    "resource": {
      "resourceType": "Observation",
      "meta": {
        "profile": [ "https://www.netzwerk-universitaetsmedizin.de/fhir/StructureDefinition/pH" ]
      },
      "identifier": [ {
        "type": {
          "coding": [ {
            "system": "http://terminology.hl7.org/CodeSystem/v2-0203",
            "code": "OBI",
            "display": "Observation Instance Identifier"
          } ]
        },
        "system": "https://mein.krankenhaus.de/fhir/NamingSystem/observationId",
        "value": "99fc1ba33ba40fdfc0b1143a6be1547ddccca5eaa8f350ee289f80fe63e29ca4",
        "assigner": {
          "reference": "Organization/3a4f3433bce81181bad2d8e0b8fafccf7dc800bc06f29be73dcb38b750a48f9a"
        }
      } ],
      "status": "final",
      "category": [ {
        "coding": [ {
          "system": "http://terminology.hl7.org/CodeSystem/observation-category",
          "code": "laboratory",
          "display": "Laboratory"
        }, {
          "system": "http://loinc.org",
          "code": "26436-6",
          "display": "Laboratory studies (set)"
        }, {
          "system": "http://loinc.org",
          "code": "18767-4",
          "display": "Blood gas studies (set)"
        } ]
      } ],
      "code": {
        "coding": [ {
          "system": "http://loinc.org",
          "code": "11558-4"
        } ],
        "text": "pH of Blood"
      },
      "subject": {
        "reference": "Patient/88f1c3d8fe502d936d77a0e85e0a956c89e8d2df685d0320b8988b12607eab08"
      },
      "encounter": {
        "reference": "Encounter/876cf466be82975fad227ac0d34fc28127c5590e8927ab0e4cbc01a3a683cea9"
      },
      "effectiveDateTime": "2020-06-21T08:34:00+00:00",
      "valueQuantity": {
        "value": 5.581147545587333,
        "unit": "pH",
        "system": "http://unitsofmeasure.org",
        "code": "[pH]"
      }
    },
    "request": {
      "method": "POST",
      "url": "Observation",
      "ifNoneExist": "identifier=https://mein.krankenhaus.de/fhir/NamingSystem/observationId|dcbae78e94683d44958af85e63f508d29480718c201649c9585e1bc6cd80b8a0"
    }
  }, {
    "fullUrl": "Observation/1bfea47ba3e72c9bab3bacda18b6d5ef219b970f6ef85dda8e70348fa717ed9a",
    "resource": {
      "resourceType": "Observation",
      "meta": {
        "profile": [ "https://www.netzwerk-universitaetsmedizin.de/fhir/StructureDefinition/sofa-score" ]
      },
      "identifier": [ {
        "type": {
          "coding": [ {
            "system": "http://terminology.hl7.org/CodeSystem/v2-0203",
            "code": "OBI",
            "display": "Observation Instance Identifier"
          } ]
        },
        "system": "https://mein.krankenhaus.de/fhir/NamingSystem/observationId",
        "value": "f100d12924c73037b24e31ede53daa56d5f4158c1f139f58c3eb36b17c5ac3df",
        "assigner": {
          "reference": "Organization/3a4f3433bce81181bad2d8e0b8fafccf7dc800bc06f29be73dcb38b750a48f9a"
        }
      } ],
      "status": "final",
      "category": [ {
        "coding": [ {
          "system": "http://terminology.hl7.org/CodeSystem/observation-category",
          "code": "survey",
          "display": "Survey"
        } ]
      } ],
      "code": {
        "coding": [ {
          "system": "https://www.netzwerk-universitaetsmedizin.de/fhir/CodeSystem/ecrf-parameter-codes",
          "code": "06",
          "display": "SOFA-Score"
        } ],
        "text": "Sepsis-related organ failure assessment score"
      },
      "subject": {
        "reference": "Patient/88f1c3d8fe502d936d77a0e85e0a956c89e8d2df685d0320b8988b12607eab08"
      },
      "encounter": {
        "reference": "Encounter/876cf466be82975fad227ac0d34fc28127c5590e8927ab0e4cbc01a3a683cea9"
      },
      "effectiveDateTime": "2020-06-21T08:34:00+00:00",
      "valueInteger": 10,
      "component": [ {
        "code": {
          "coding": [ {
            "system": "https://www.netzwerk-universitaetsmedizin.de/fhir/CodeSystem/sofa-score",
            "code": "resp",
            "display": "Respiratory system"
          } ],
          "text": "SOFA Respiratory system scoring category"
        },
        "valueCodeableConcept": {
          "coding": [ {
            "system": "https://www.netzwerk-universitaetsmedizin.de/fhir/CodeSystem/sofa-score",
            "code": "resp2",
            "display": "Respiratory system SOFA score 2"
          } ],
          "text": "PaO2/FiO2 [mmHg (kPa)] < 300 (40)"
        }
      }, {
        "code": {
          "coding": [ {
            "system": "https://www.netzwerk-universitaetsmedizin.de/fhir/CodeSystem/sofa-score",
            "code": "ns",
            "display": "Nervous system"
          } ],
          "text": "SOFA Nervous system scoring category"
        },
        "valueCodeableConcept": {
          "coding": [ {
            "system": "https://www.netzwerk-universitaetsmedizin.de/fhir/CodeSystem/sofa-score",
            "code": "ns0",
            "display": "Nervous system SOFA score 0"
          } ],
          "text": "Glasgow Coma Scale (GCS) 15"
        }
      }, {
        "code": {
          "coding": [ {
            "system": "https://www.netzwerk-universitaetsmedizin.de/fhir/CodeSystem/sofa-score",
            "code": "kid",
            "display": "Kidneys"
          } ],
          "text": "SOFA Kidneys scoring category"
        },
        "valueCodeableConcept": {
          "coding": [ {
            "system": "https://www.netzwerk-universitaetsmedizin.de/fhir/CodeSystem/sofa-score",
            "code": "kid3",
            "display": "Kidneys SOFA score 3"
          } ],
          "text": "Creatinine (mg/dl) [umol/L] (or urine output) 3.5-4.9 [300-440] (or < 500 ml/d)"
        }
      }, {
        "code": {
          "coding": [ {
            "system": "https://www.netzwerk-universitaetsmedizin.de/fhir/CodeSystem/sofa-score",
            "code": "cvs",
            "display": "Cardiovascular system"
          } ],
          "text": "SOFA Cardiovascular system scoring category"
        },
        "valueCodeableConcept": {
          "coding": [ {
            "system": "https://www.netzwerk-universitaetsmedizin.de/fhir/CodeSystem/sofa-score",
            "code": "cvs4",
            "display": "Cardiovascular system SOFA score 4"
          } ],
          "text": "Administration of dopamine > 15 ug/kg/min OR epinephrine > 0.1 ug/kg/min OR norepinephrine > 0.1 ug/kg/min"
        }
      }, {
        "code": {
          "coding": [ {
            "system": "https://www.netzwerk-universitaetsmedizin.de/fhir/CodeSystem/sofa-score",
            "code": "liv",
            "display": "Liver"
          } ],
          "text": "SOFA Liver scoring category"
        },
        "valueCodeableConcept": {
          "coding": [ {
            "system": "https://www.netzwerk-universitaetsmedizin.de/fhir/CodeSystem/sofa-score",
            "code": "liv0",
            "display": "Liver SOFA score 0"
          } ],
          "text": "Bilirubin (mg/dl) [umol/L] < 1.2 [< 20]"
        }
      }, {
        "code": {
          "coding": [ {
            "system": "https://www.netzwerk-universitaetsmedizin.de/fhir/CodeSystem/sofa-score",
            "code": "coa",
            "display": "Coagulation"
          } ],
          "text": "SOFA Coagulation scoring category"
        },
        "valueCodeableConcept": {
          "coding": [ {
            "system": "https://www.netzwerk-universitaetsmedizin.de/fhir/CodeSystem/sofa-score",
            "code": "coa1",
            "display": "Coagulation SOFA score 1"
          } ],
          "text": "Platelets10^3/ul < 150"
        }
      } ]
    },
    "request": {
      "method": "POST",
      "url": "Observation",
      "ifNoneExist": "identifier=https://mein.krankenhaus.de/fhir/NamingSystem/observationId|1bfea47ba3e72c9bab3bacda18b6d5ef219b970f6ef85dda8e70348fa717ed9a"
    }
  }, {
    "fullUrl": "Observation/4734df6d14cc3a835fabc0eb9ffb6a4c39fff375f97052d589737968b88613d1",
    "resource": {
      "resourceType": "Observation",
      "meta": {
        "profile": [ "https://www.netzwerk-universitaetsmedizin.de/fhir/StructureDefinition/respiratory-rate" ]
      },
      "identifier": [ {
        "type": {
          "coding": [ {
            "system": "http://terminology.hl7.org/CodeSystem/v2-0203",
            "code": "OBI",
            "display": "Observation Instance Identifier"
          } ]
        },
        "system": "https://mein.krankenhaus.de/fhir/NamingSystem/observationId",
        "value": "fba4c151a190732fae487f2e6442df9228a7647fd50c1828b5e331e802931135",
        "assigner": {
          "reference": "Organization/3a4f3433bce81181bad2d8e0b8fafccf7dc800bc06f29be73dcb38b750a48f9a"
        }
      } ],
      "status": "final",
      "category": [ {
        "coding": [ {
          "system": "http://terminology.hl7.org/CodeSystem/observation-category",
          "code": "vital-signs",
          "display": "Vital Signs"
        } ]
      } ],
      "code": {
        "coding": [ {
          "system": "http://loinc.org",
          "code": "9279-1"
        }, {
          "system": "http://snomed.info/sct",
          "code": "86290005"
        } ],
        "text": "Respiratory rate"
      },
      "subject": {
        "reference": "Patient/88f1c3d8fe502d936d77a0e85e0a956c89e8d2df685d0320b8988b12607eab08"
      },
      "encounter": {
        "reference": "Encounter/876cf466be82975fad227ac0d34fc28127c5590e8927ab0e4cbc01a3a683cea9"
      },
      "effectiveDateTime": "2020-06-21T08:34:00+00:00",
      "valueQuantity": {
        "value": 6,
        "unit": "per minute",
        "system": "http://unitsofmeasure.org",
        "code": "/min"
      }
    },
    "request": {
      "method": "POST",
      "url": "Observation",
      "ifNoneExist": "identifier=https://mein.krankenhaus.de/fhir/NamingSystem/observationId|4734df6d14cc3a835fabc0eb9ffb6a4c39fff375f97052d589737968b88613d1"
    }
  }, {
    "fullUrl": "Observation/a91cc89f3e5fbe7fc0bcb8e186ca72e00f61d4e09c16962e7dd638b66ea88d86",
    "resource": {
      "resourceType": "Observation",
      "meta": {
        "profile": [ "https://www.netzwerk-universitaetsmedizin.de/fhir/StructureDefinition/blood-pressure" ]
      },
      "identifier": [ {
        "type": {
          "coding": [ {
            "system": "http://terminology.hl7.org/CodeSystem/v2-0203",
            "code": "OBI",
            "display": "Observation Instance Identifier"
          } ]
        },
        "system": "https://mein.krankenhaus.de/fhir/NamingSystem/observationId",
        "value": "3ede4646e539b3f01468c69e48fa0fc5692bb2cf30029639709faccb6764d76e",
        "assigner": {
          "reference": "Organization/3a4f3433bce81181bad2d8e0b8fafccf7dc800bc06f29be73dcb38b750a48f9a"
        }
      } ],
      "status": "final",
      "category": [ {
        "coding": [ {
          "system": "http://terminology.hl7.org/CodeSystem/observation-category",
          "code": "vital-signs",
          "display": "Vital Signs"
        } ]
      } ],
      "code": {
        "coding": [ {
          "system": "http://loinc.org",
          "code": "85354-9",
          "display": "Blood pressure panel with all children optional"
        }, {
          "system": "http://snomed.info/sct",
          "code": "75367002",
          "display": "Blood pressure (observable entity)"
        } ],
        "text": "Blood pressure"
      },
      "subject": {
        "reference": "Patient/88f1c3d8fe502d936d77a0e85e0a956c89e8d2df685d0320b8988b12607eab08"
      },
      "encounter": {
        "reference": "Encounter/876cf466be82975fad227ac0d34fc28127c5590e8927ab0e4cbc01a3a683cea9"
      },
      "effectiveDateTime": "2020-06-21T08:34:00+00:00",
      "component": [ {
        "code": {
          "coding": [ {
            "system": "http://loinc.org",
            "code": "8480-6"
          }, {
            "system": "http://snomed.info/sct",
            "code": "271649006"
          } ],
          "text": "Systolic blood pressure"
        },
        "valueQuantity": {
          "value": 91,
          "unit": "mmHg",
          "system": "http://unitsofmeasure.org",
          "code": "mm[Hg]"
        }
      }, {
        "code": {
          "coding": [ {
            "system": "http://loinc.org",
            "code": "8462-4"
          }, {
            "system": "http://snomed.info/sct",
            "code": "271650006"
          } ],
          "text": "Diastolic blood pressure"
        },
        "valueQuantity": {
          "value": 154,
          "unit": "mmHg",
          "system": "http://unitsofmeasure.org",
          "code": "mm[Hg]"
        }
      } ]
    },
    "request": {
      "method": "POST",
      "url": "Observation",
      "ifNoneExist": "identifier=https://mein.krankenhaus.de/fhir/NamingSystem/observationId|a91cc89f3e5fbe7fc0bcb8e186ca72e00f61d4e09c16962e7dd638b66ea88d86"
    }
  }, {
    "fullUrl": "Observation/3c7c95efdf03e0493c4e411fd42859cba038ca586776a5d1144ec2233b5c28ee",
    "resource": {
      "resourceType": "Observation",
      "meta": {
        "profile": [ "https://www.netzwerk-universitaetsmedizin.de/fhir/StructureDefinition/heart-rate" ]
      },
      "identifier": [ {
        "type": {
          "coding": [ {
            "system": "http://terminology.hl7.org/CodeSystem/v2-0203",
            "code": "OBI",
            "display": "Observation Instance Identifier"
          } ]
        },
        "system": "https://mein.krankenhaus.de/fhir/NamingSystem/observationId",
        "value": "d702eed2a563c5efb70c9bf9967ecaf5e04b8f27040f53cb02b9c39f581e85bc",
        "assigner": {
          "reference": "Organization/3a4f3433bce81181bad2d8e0b8fafccf7dc800bc06f29be73dcb38b750a48f9a"
        }
      } ],
      "status": "final",
      "category": [ {
        "coding": [ {
          "system": "http://terminology.hl7.org/CodeSystem/observation-category",
          "code": "vital-signs",
          "display": "Vital Signs"
        } ]
      } ],
      "code": {
        "coding": [ {
          "system": "http://loinc.org",
          "code": "8867-4"
        }, {
          "system": "http://snomed.info/sct",
          "code": "364075005"
        } ],
        "text": "Heart rate"
      },
      "subject": {
        "reference": "Patient/88f1c3d8fe502d936d77a0e85e0a956c89e8d2df685d0320b8988b12607eab08"
      },
      "encounter": {
        "reference": "Encounter/876cf466be82975fad227ac0d34fc28127c5590e8927ab0e4cbc01a3a683cea9"
      },
      "effectiveDateTime": "2020-06-21T08:34:00+00:00",
      "valueQuantity": {
        "value": 94,
        "unit": "per minute",
        "system": "http://unitsofmeasure.org",
        "code": "/min"
      }
    },
    "request": {
      "method": "POST",
      "url": "Observation",
      "ifNoneExist": "identifier=https://mein.krankenhaus.de/fhir/NamingSystem/observationId|3c7c95efdf03e0493c4e411fd42859cba038ca586776a5d1144ec2233b5c28ee"
    }
  }, {
    "fullUrl": "Observation/0cc191f82d8c4f742ab0271995733682b99543be6066b6207ec63ef0615987ad",
    "resource": {
      "resourceType": "Observation",
      "meta": {
        "profile": [ "https://www.netzwerk-universitaetsmedizin.de/fhir/StructureDefinition/body-temperature" ]
      },
      "identifier": [ {
        "type": {
          "coding": [ {
            "system": "http://terminology.hl7.org/CodeSystem/v2-0203",
            "code": "OBI",
            "display": "Observation Instance Identifier"
          } ]
        },
        "system": "https://mein.krankenhaus.de/fhir/NamingSystem/observationId",
        "value": "9e9c98b8efde9b6f1ffc1734b31ae6e5e871368846929db5b29e835aa8a2967f",
        "assigner": {
          "reference": "Organization/3a4f3433bce81181bad2d8e0b8fafccf7dc800bc06f29be73dcb38b750a48f9a"
        }
      } ],
      "status": "final",
      "category": [ {
        "coding": [ {
          "system": "http://terminology.hl7.org/CodeSystem/observation-category",
          "code": "vital-signs",
          "display": "Vital Signs"
        } ]
      } ],
      "code": {
        "coding": [ {
          "system": "http://loinc.org",
          "code": "8310-5"
        }, {
          "system": "http://snomed.info/sct",
          "code": "386725007"
        } ],
        "text": "Body temperature"
      },
      "subject": {
        "reference": "Patient/88f1c3d8fe502d936d77a0e85e0a956c89e8d2df685d0320b8988b12607eab08"
      },
      "encounter": {
        "reference": "Encounter/876cf466be82975fad227ac0d34fc28127c5590e8927ab0e4cbc01a3a683cea9"
      },
      "effectiveDateTime": "2020-06-21T08:34:00+00:00",
      "valueQuantity": {
        "value": 35.15311298775049,
        "unit": "C",
        "system": "http://unitsofmeasure.org",
        "code": "Cel"
      }
    },
    "request": {
      "method": "POST",
      "url": "Observation",
      "ifNoneExist": "identifier=https://mein.krankenhaus.de/fhir/NamingSystem/observationId|0cc191f82d8c4f742ab0271995733682b99543be6066b6207ec63ef0615987ad"
    }
  }, {
    "fullUrl": "Observation/5a72192d6d0ee1c6bb585e47b11a2d74ab4241078d50a4b6bfbff486f75901a2",
    "resource": {
      "resourceType": "Observation",
      "meta": {
        "profile": [ "https://www.netzwerk-universitaetsmedizin.de/fhir/StructureDefinition/oxygen-saturation" ]
      },
      "identifier": [ {
        "type": {
          "coding": [ {
            "system": "http://terminology.hl7.org/CodeSystem/v2-0203",
            "code": "OBI",
            "display": "Observation Instance Identifier"
          } ]
        },
        "system": "https://mein.krankenhaus.de/fhir/NamingSystem/observationId",
        "value": "556c2927714e455e6fff30b5390a1f3e6df56fcb1da8d092fe8ccaf26fea4562",
        "assigner": {
          "reference": "Organization/3a4f3433bce81181bad2d8e0b8fafccf7dc800bc06f29be73dcb38b750a48f9a"
        }
      } ],
      "status": "final",
      "category": [ {
        "coding": [ {
          "system": "http://terminology.hl7.org/CodeSystem/observation-category",
          "code": "vital-signs",
          "display": "Vital Signs"
        } ]
      } ],
      "code": {
        "coding": [ {
          "system": "http://loinc.org",
          "code": "2708-6"
        }, {
          "system": "http://loinc.org",
          "code": "59408-5"
        }, {
          "system": "http://loinc.org",
          "code": "20564-1"
        }, {
          "system": "http://snomed.info/sct",
          "code": "431314004"
        } ],
        "text": "Oxygen saturation in Arterial blood"
      },
      "subject": {
        "reference": "Patient/88f1c3d8fe502d936d77a0e85e0a956c89e8d2df685d0320b8988b12607eab08"
      },
      "encounter": {
        "reference": "Encounter/876cf466be82975fad227ac0d34fc28127c5590e8927ab0e4cbc01a3a683cea9"
      },
      "effectiveDateTime": "2020-06-21T08:34:00+00:00",
      "valueQuantity": {
        "value": 7,
        "unit": "%",
        "system": "http://unitsofmeasure.org",
        "code": "%"
      }
    },
    "request": {
      "method": "POST",
      "url": "Observation",
      "ifNoneExist": "identifier=https://mein.krankenhaus.de/fhir/NamingSystem/observationId|5a72192d6d0ee1c6bb585e47b11a2d74ab4241078d50a4b6bfbff486f75901a2"
    }
  }, {
    "fullUrl": "Observation/9b24a372e6f9cb5b907994a2bea006f59bc9f63d44b963816870240c4346e139",
    "resource": {
      "resourceType": "Observation",
      "meta": {
        "profile": [ "https://www.netzwerk-universitaetsmedizin.de/fhir/StructureDefinition/study-inclusion-covid-19" ]
      },
      "identifier": [ {
        "type": {
          "coding": [ {
            "system": "http://terminology.hl7.org/CodeSystem/v2-0203",
            "code": "OBI",
            "display": "Observation Instance Identifier"
          } ]
        },
        "system": "https://mein.krankenhaus.de/fhir/NamingSystem/observationId",
        "value": "7ca4dcacfc9e02babc77906f32fe4e42b1024caf5ba682a40bac44b97aac9f2a",
        "assigner": {
          "reference": "Organization/3a4f3433bce81181bad2d8e0b8fafccf7dc800bc06f29be73dcb38b750a48f9a"
        }
      } ],
      "status": "final",
      "category": [ {
        "coding": [ {
          "system": "http://terminology.hl7.org/CodeSystem/observation-category",
          "code": "survey",
          "display": "Survey"
        } ]
      } ],
      "code": {
        "coding": [ {
          "system": "https://www.netzwerk-universitaetsmedizin.de/fhir/CodeSystem/ecrf-parameter-codes",
          "code": "02",
          "display": "Study inclusion due to Covid-19"
        } ],
        "text": "Confirmed Covid-19 diagnosis as main reason for enrolment in the study"
      },
      "subject": {
        "reference": "Patient/88f1c3d8fe502d936d77a0e85e0a956c89e8d2df685d0320b8988b12607eab08"
      },
      "_effectiveDateTime": {
        "extension": [ {
          "url": "http://hl7.org/fhir/StructureDefinition/data-absent-reason",
          "valueCode": "unknown"
        } ]
      },
      "valueCodeableConcept": {
        "coding": [ {
          "system": "http://snomed.info/sct",
          "code": "373067005"
        } ]
      }
    },
    "request": {
      "method": "POST",
      "url": "Observation",
      "ifNoneExist": "identifier=https://mein.krankenhaus.de/fhir/NamingSystem/observationId|9b24a372e6f9cb5b907994a2bea006f59bc9f63d44b963816870240c4346e139"
    }
  }, {
    "fullUrl": "Observation/807ca0be40be6562f5ed3b7c888d9fad743ffae922daa23d442e1b215d3bca98",
    "resource": {
      "resourceType": "Observation",
      "meta": {
        "profile": [ "https://www.netzwerk-universitaetsmedizin.de/fhir/StructureDefinition/interventional-clinical-trial-participation" ]
      },
      "identifier": [ {
        "type": {
          "coding": [ {
            "system": "http://terminology.hl7.org/CodeSystem/v2-0203",
            "code": "OBI",
            "display": "Observation Instance Identifier"
          } ]
        },
        "system": "https://mein.krankenhaus.de/fhir/NamingSystem/observationId",
        "value": "526248eba3dfaaec92503ccff325f9aa7ab80ec7b1ad2f2ac402b028c9e702e6",
        "assigner": {
          "reference": "Organization/3a4f3433bce81181bad2d8e0b8fafccf7dc800bc06f29be73dcb38b750a48f9a"
        }
      } ],
      "status": "final",
      "category": [ {
        "coding": [ {
          "system": "http://terminology.hl7.org/CodeSystem/observation-category",
          "code": "survey",
          "display": "Survey"
        } ]
      } ],
      "code": {
        "coding": [ {
          "system": "https://www.netzwerk-universitaetsmedizin.de/fhir/CodeSystem/ecrf-parameter-codes",
          "code": "03",
          "display": "Participation in interventional clinical trials"
        } ],
        "text": "Has the patient participated in one or more interventional clinical trials?"
      },
      "subject": {
        "reference": "Patient/88f1c3d8fe502d936d77a0e85e0a956c89e8d2df685d0320b8988b12607eab08"
      },
      "_effectiveDateTime": {
        "extension": [ {
          "url": "http://hl7.org/fhir/StructureDefinition/data-absent-reason",
          "valueCode": "unknown"
        } ]
      },
      "valueCodeableConcept": {
        "coding": [ {
          "system": "http://snomed.info/sct",
          "code": "373066001"
        } ]
      }
    },
    "request": {
      "method": "POST",
      "url": "Observation",
      "ifNoneExist": "identifier=https://mein.krankenhaus.de/fhir/NamingSystem/observationId|807ca0be40be6562f5ed3b7c888d9fad743ffae922daa23d442e1b215d3bca98"
    }
  } ]
}